accelerationTimestamp,accelerationX,accelerationY,accelerationZ,angularSpeedTimestamp,angularSpeedX,angularSpeedY,angularSpeedZ,temperatureTimestamp,temperature
11110317845,-0.6987042,-9.777073,0.2632105,11110317845,0.0012217305,-0.012217305,0.0012217305,11110317845,56.671875
11110320125,-0.6987042,-9.777073,0.27756742,11110320125,-0.002443461,-0.012217305,0.0012217305,11110320125,56.671875
11110322405,-0.7178468,-9.781859,0.2632105,11110322405,0,-0.009773844,0.0012217305,11110322405,56.671875
11110324685,-0.7082755,-9.777073,0.26799613,11110324685,-0.0036651916,-0.012217305,0.0012217305,11110324685,56.648438
11110326976,-0.7178468,-9.781859,0.2727818,11110326976,-0.002443461,-0.010995574,0.002443461,11110326976,56.648438
11110329256,-0.7178468,-9.772287,0.29671,11110329256,-0.002443461,-0.009773844,0.002443461,11110329256,56.648438
11110331536,-0.71306115,-9.767502,0.28713873,11110331536,-0.0012217305,-0.010995574,0.0036651916,11110331536,56.648438
11110333817,-0.71306115,-9.753145,0.26799613,11110333817,-0.0036651916,-0.010995574,0.0036651916,11110333817,56.648438
11110336097,-0.72263247,-9.781859,0.3062813,11110336097,-0.002443461,-0.009773844,0.002443461,11110336097,56.648438
11110338393,-0.7178468,-9.777073,0.30149564,11110338393,-0.002443461,-0.009773844,0.002443461,11110338393,56.648438
11110340673,-0.70348984,-9.767502,0.30149564,11110340673,-0.002443461,-0.012217305,0.002443461,11110340673,56.648438
11110342953,-0.72263247,-9.781859,0.28235307,11110342953,-0.004886922,-0.012217305,0.002443461,11110342953,56.6875
11110345234,-0.70348984,-9.772287,0.27756742,11110345234,-0.0012217305,-0.012217305,0.0012217305,11110345234,56.6875
11110347513,-0.72263247,-9.767502,0.2727818,11110347513,-0.0036651916,-0.012217305,0.0012217305,11110347513,56.6875
11110349793,-0.7082755,-9.757931,0.27756742,11110349793,-0.0012217305,-0.015882496,0.0012217305,11110349793,56.6875
11110352074,-0.71306115,-9.781859,0.28713873,11110352074,-0.0012217305,-0.012217305,0.0012217305,11110352074,56.6875
11110354354,-0.72263247,-9.796216,0.3062813,11110354354,-0.0012217305,-0.010995574,0.0012217305,11110354354,56.6875
11110356761,-0.7178468,-9.781859,0.27756742,11110356761,-0.0036651916,-0.012217305,0.002443461,11110356761,56.6875
11110358923,-0.7082755,-9.781859,0.27756742,11110358923,-0.0061086523,-0.008552114,0.002443461,11110358923,56.6875
11110361203,-0.72741807,-9.762716,0.30149564,11110361203,-0.002443461,-0.012217305,0.002443461,11110361203,56.664062
11110363484,-0.7082755,-9.781859,0.28713873,11110363484,-0.002443461,-0.013439035,0.004886922,11110363484,56.664062
11110365764,-0.7082755,-9.772287,0.29671,11110365764,-0.0036651916,-0.013439035,0.0036651916,11110365764,56.664062
11110368051,-0.7082755,-9.777073,0.30149564,11110368051,-0.0036651916,-0.010995574,0.0012217305,11110368051,56.664062
11110370331,-0.7178468,-9.772287,0.29671,11110370331,-0.0036651916,-0.014660766,0.0012217305,11110370331,56.664062
11110372611,-0.6987042,-9.781859,0.29192436,11110372611,-0.0012217305,-0.012217305,0.0036651916,11110372611,56.664062
11110374891,-0.6987042,-9.767502,0.29192436,11110374891,0,-0.013439035,0.0012217305,11110374891,56.664062
11110377180,-0.6987042,-9.772287,0.29671,11110377180,0,-0.010995574,0.002443461,11110377180,56.664062
11110379461,-0.70348984,-9.777073,0.28713873,11110379461,-0.002443461,-0.013439035,0.002443461,11110379461,56.63672
11110381741,-0.6843473,-9.777073,0.28713873,11110381741,-0.0012217305,-0.012217305,0.0036651916,11110381741,56.63672
11110384021,-0.70348984,-9.781859,0.2727818,11110384021,-0.002443461,-0.010995574,0.0012217305,11110384021,56.63672
11110386798,-0.71306115,-9.786645,0.26799613,11110386798,-0.002443461,-0.009773844,0.002443461,11110386798,56.63672
11110388580,-0.71306115,-9.772287,0.28713873,11110388580,-0.0036651916,-0.009773844,0,11110388580,56.63672
11110390860,-0.71306115,-9.772287,0.27756742,11110390860,0.0012217305,-0.009773844,0.002443461,11110390860,56.63672
11110393141,-0.7082755,-9.781859,0.28235307,11110393141,-0.0036651916,-0.009773844,0.0012217305,11110393141,56.63672
11110395421,-0.7178468,-9.767502,0.30149564,11110395421,-0.004886922,-0.012217305,0.0012217305,11110395421,56.63672
11110397707,-0.7178468,-9.767502,0.2727818,11110397707,-0.0012217305,-0.010995574,0.0061086523,11110397707,56.679688
11110399987,-0.7082755,-9.757931,0.2727818,11110399987,0.002443461,-0.013439035,0.0036651916,11110399987,56.679688
11110402267,-0.71306115,-9.753145,0.29192436,11110402267,0,-0.012217305,0.002443461,11110402267,56.679688
11110404548,-0.7082755,-9.757931,0.29671,11110404548,0,-0.010995574,-0.0012217305,11110404548,56.679688
11110406848,-0.7178468,-9.772287,0.29192436,11110406848,-0.0036651916,-0.012217305,0.002443461,11110406848,56.679688
11110409128,-0.7082755,-9.772287,0.27756742,11110409128,-0.004886922,-0.008552114,0.002443461,11110409128,56.679688
11110411409,-0.6939186,-9.772287,0.3062813,11110411409,-0.004886922,-0.013439035,0.0012217305,11110411409,56.679688
11110413689,-0.6939186,-9.777073,0.27756742,11110413689,-0.0036651916,-0.012217305,0.0036651916,11110413689,56.679688
11110415969,-0.70348984,-9.772287,0.28713873,11110415969,-0.002443461,-0.012217305,0.0036651916,11110415969,56.65625
11110418237,-0.72263247,-9.772287,0.28235307,11110418237,-0.0036651916,-0.012217305,0.004886922,11110418237,56.65625
11110420517,-0.6987042,-9.762716,0.28713873,11110420517,0,-0.013439035,0.004886922,11110420517,56.65625
11110422797,-0.71306115,-9.79143,0.30149564,11110422797,-0.002443461,-0.013439035,0.0036651916,11110422797,56.65625
11110425078,-0.7082755,-9.772287,0.28235307,11110425078,-0.0036651916,-0.012217305,0.0036651916,11110425078,56.65625
11110427383,-0.70348984,-9.762716,0.30149564,11110427383,-0.002443461,-0.014660766,0.0012217305,11110427383,56.65625
11110429663,-0.6843473,-9.772287,0.2727818,11110429663,-0.0012217305,-0.013439035,0,11110429663,56.65625
11110431944,-0.6939186,-9.772287,0.30149564,11110431944,0,-0.013439035,0.002443461,11110431944,56.65625
11110434224,-0.6939186,-9.767502,0.27756742,11110434224,-0.0012217305,-0.014660766,0.002443461,11110434224,56.664062
11110436799,-0.7082755,-9.762716,0.28713873,11110436799,-0.002443461,-0.012217305,0.0036651916,11110436799,56.664062
11110438795,-0.6939186,-9.767502,0.28713873,11110438795,-0.002443461,-0.012217305,0.0036651916,11110438795,56.664062
11110441075,-0.7082755,-9.786645,0.28235307,11110441075,0,-0.013439035,0.0012217305,11110441075,56.664062
11110443355,-0.70348984,-9.777073,0.26799613,11110443355,-0.0012217305,-0.012217305,0.002443461,11110443355,56.664062
11110445636,-0.6987042,-9.786645,0.28713873,11110445636,-0.0012217305,-0.013439035,0.002443461,11110445636,56.664062
11110447919,-0.72263247,-9.762716,0.29671,11110447919,-0.002443461,-0.012217305,0,11110447919,56.664062
11110450199,-0.70348984,-9.777073,0.28713873,11110450199,-0.0036651916,-0.010995574,0.0036651916,11110450199,56.664062
11110452479,-0.71306115,-9.762716,0.27756742,11110452479,-0.0012217305,-0.014660766,0.0012217305,11110452479,56.679688
11110454759,-0.7178468,-9.786645,0.2727818,11110454759,-0.0012217305,-0.013439035,0.0036651916,11110454759,56.679688
11110457036,-0.7322037,-9.772287,0.28235307,11110457036,-0.002443461,-0.014660766,0.002443461,11110457036,56.679688
11110459316,-0.7178468,-9.796216,0.2727818,11110459316,0,-0.017104227,0,11110459316,56.679688
11110461597,-0.71306115,-9.781859,0.26799613,11110461597,-0.002443461,-0.012217305,0,11110461597,56.679688
11110463877,-0.7178468,-9.767502,0.2727818,11110463877,-0.0012217305,-0.012217305,0.002443461,11110463877,56.679688
11110466157,-0.7178468,-9.786645,0.25842485,11110466157,-0.002443461,-0.012217305,0.0012217305,11110466157,56.679688
11110468437,-0.7178468,-9.781859,0.2727818,11110468437,-0.0012217305,-0.012217305,0.0012217305,11110468437,56.679688
11110470717,-0.6891329,-9.777073,0.2632105,11110470717,-0.0012217305,-0.013439035,0.002443461,11110470717,56.679688
11110472998,-0.70348984,-9.767502,0.2727818,11110472998,-0.002443461,-0.012217305,0.0036651916,11110472998,56.679688
11110475278,-0.6987042,-9.777073,0.28713873,11110475278,-0.0012217305,-0.014660766,0.0036651916,11110475278,56.679688
11110477573,-0.6891329,-9.762716,0.2632105,11110477573,-0.002443461,-0.014660766,0.002443461,11110477573,56.679688
11110479853,-0.70348984,-9.777073,0.2632105,11110479853,-0.0012217305,-0.013439035,0.002443461,11110479853,56.679688
11110482133,-0.70348984,-9.781859,0.26799613,11110482133,-0.002443461,-0.012217305,0.002443461,11110482133,56.679688
11110484413,-0.70348984,-9.772287,0.2632105,11110484413,0,-0.012217305,0.0036651916,11110484413,56.679688
11110486764,-0.6939186,-9.767502,0.24885355,11110486764,0.0012217305,-0.013439035,0.004886922,11110486764,56.679688
11110488974,-0.6939186,-9.777073,0.2727818,11110488974,0.0012217305,-0.013439035,0.0012217305,11110488974,56.703125
11110491254,-0.70348984,-9.767502,0.2632105,11110491254,-0.0036651916,-0.013439035,0.0036651916,11110491254,56.703125
11110493534,-0.71306115,-9.767502,0.2632105,11110493534,-0.002443461,-0.009773844,0.0036651916,11110493534,56.703125
11110495814,-0.7082755,-9.772287,0.26799613,11110495814,0,-0.010995574,0.002443461,11110495814,56.703125
11110498120,-0.7082755,-9.767502,0.25842485,11110498120,-0.004886922,-0.008552114,0.002443461,11110498120,56.703125
11110500400,-0.70348984,-9.762716,0.2632105,11110500400,-0.0012217305,-0.010995574,0.004886922,11110500400,56.703125
11110502680,-0.71306115,-9.777073,0.26799613,11110502680,-0.0012217305,-0.010995574,0.0036651916,11110502680,56.703125
11110504961,-0.6987042,-9.772287,0.27756742,11110504961,-0.004886922,-0.010995574,0.0012217305,11110504961,56.703125
11110507241,-0.71306115,-9.767502,0.27756742,11110507241,-0.004886922,-0.013439035,0.002443461,11110507241,56.65625
11110509521,-0.7322037,-9.762716,0.2727818,11110509521,-0.0012217305,-0.013439035,0.0036651916,11110509521,56.65625
11110511801,-0.72263247,-9.762716,0.27756742,11110511801,-0.0012217305,-0.014660766,0.002443461,11110511801,56.65625
11110514081,-0.7178468,-9.767502,0.28713873,11110514081,-0.0036651916,-0.010995574,0,11110514081,56.65625
11110516798,-0.72741807,-9.781859,0.2632105,11110516798,-0.0036651916,-0.010995574,0.002443461,11110516798,56.65625
11110518651,-0.70348984,-9.767502,0.26799613,11110518651,-0.002443461,-0.009773844,0.002443461,11110518651,56.65625
11110520932,-0.70348984,-9.757931,0.2727818,11110520932,-0.004886922,-0.013439035,0.002443461,11110520932,56.65625
11110523212,-0.6987042,-9.772287,0.2536392,11110523212,-0.004886922,-0.012217305,0.002443461,11110523212,56.65625
11110525492,-0.7082755,-9.767502,0.28235307,11110525492,-0.002443461,-0.012217305,0.0012217305,11110525492,56.664062
11110527762,-0.6939186,-9.772287,0.26799613,11110527762,-0.0036651916,-0.010995574,0.0012217305,11110527762,56.664062
11110530042,-0.6987042,-9.777073,0.26799613,11110530042,-0.002443461,-0.012217305,0,11110530042,56.664062
11110532322,-0.70348984,-9.777073,0.29671,11110532322,0,-0.013439035,0,11110532322,56.664062
11110534602,-0.7178468,-9.762716,0.28235307,11110534602,0.0012217305,-0.013439035,0.0012217305,11110534602,56.664062
11110536906,-0.7082755,-9.786645,0.2727818,11110536906,-0.0012217305,-0.012217305,0.002443461,11110536906,56.664062
11110539186,-0.7178468,-9.772287,0.2632105,11110539186,-0.0012217305,-0.010995574,0,11110539186,56.664062
11110541467,-0.7178468,-9.781859,0.2632105,11110541467,-0.0012217305,-0.010995574,0.002443461,11110541467,56.664062
11110543747,-0.7178468,-9.777073,0.2632105,11110543747,-0.0012217305,-0.010995574,0.002443461,11110543747,56.628906
11110546027,-0.71306115,-9.772287,0.2632105,11110546027,-0.004886922,-0.010995574,0.002443461,11110546027,56.628906
11110548312,-0.70348984,-9.757931,0.27756742,11110548312,-0.004886922,-0.008552114,0.002443461,11110548312,56.628906
11110550592,-0.7082755,-9.772287,0.29671,11110550592,-0.0036651916,-0.010995574,0.002443461,11110550592,56.628906
11110552872,-0.70348984,-9.757931,0.29192436,11110552872,0,-0.012217305,0.0036651916,11110552872,56.628906
11110555153,-0.7082755,-9.772287,0.2727818,11110555153,-0.0012217305,-0.012217305,0.0036651916,11110555153,56.628906
11110557429,-0.7178468,-9.777073,0.25842485,11110557429,0,-0.012217305,0.0012217305,11110557429,56.628906
11110559709,-0.7082755,-9.781859,0.2727818,11110559709,-0.002443461,-0.013439035,0.002443461,11110559709,56.628906
11110561989,-0.7082755,-9.781859,0.27756742,11110561989,0,-0.010995574,0.002443461,11110561989,56.648438
11110564269,-0.7178468,-9.772287,0.27756742,11110564269,-0.0012217305,-0.013439035,0.0036651916,11110564269,56.648438
11110566799,-0.71306115,-9.767502,0.2632105,11110566799,-0.002443461,-0.012217305,0.002443461,11110566799,56.648438
11110568842,-0.70348984,-9.79143,0.28235307,11110568842,-0.0012217305,-0.015882496,0,11110568842,56.648438
11110571123,-0.72741807,-9.767502,0.27756742,11110571123,-0.0036651916,-0.008552114,0.0012217305,11110571123,56.648438
11110573403,-0.71306115,-9.777073,0.2727818,11110573403,-0.0036651916,-0.012217305,0.002443461,11110573403,56.648438
11110575683,-0.7322037,-9.772287,0.25842485,11110575683,-0.0012217305,-0.010995574,0.0036651916,11110575683,56.648438
11110577977,-0.7178468,-9.767502,0.29192436,11110577977,-0.002443461,-0.008552114,0.004886922,11110577977,56.648438
11110580257,-0.71306115,-9.767502,0.2727818,11110580257,-0.0036651916,-0.012217305,0,11110580257,56.664062
11110582538,-0.72263247,-9.762716,0.28713873,11110582538,-0.004886922,-0.010995574,0.002443461,11110582538,56.664062
11110584818,-0.70348984,-9.767502,0.2727818,11110584818,-0.004886922,-0.013439035,0.002443461,11110584818,56.664062
11110587084,-0.70348984,-9.781859,0.27756742,11110587084,-0.002443461,-0.012217305,0.002443461,11110587084,56.664062
11110589364,-0.70348984,-9.786645,0.2727818,11110589364,0,-0.010995574,0.002443461,11110589364,56.664062
11110591644,-0.6843473,-9.772287,0.28235307,11110591644,0,-0.009773844,0.002443461,11110591644,56.664062
11110593924,-0.71306115,-9.772287,0.28713873,11110593924,-0.002443461,-0.010995574,0.002443461,11110593924,56.664062
11110596205,-0.72741807,-9.753145,0.26799613,11110596205,0.0012217305,-0.012217305,0.0036651916,11110596205,56.664062
11110598512,-0.7082755,-9.767502,0.2727818,11110598512,-0.002443461,-0.009773844,0.0036651916,11110598512,56.648438
11110600793,-0.72263247,-9.777073,0.26799613,11110600793,-0.002443461,-0.010995574,0.0036651916,11110600793,56.648438
11110603073,-0.71306115,-9.762716,0.25842485,11110603073,-0.0012217305,-0.012217305,0.002443461,11110603073,56.648438
11110605353,-0.71306115,-9.772287,0.26799613,11110605353,-0.0036651916,-0.010995574,0.002443461,11110605353,56.648438
11110607635,-0.7178468,-9.767502,0.26799613,11110607635,-0.0012217305,-0.012217305,0.002443461,11110607635,56.648438
11110609915,-0.6987042,-9.762716,0.26799613,11110609915,0,-0.012217305,0.0036651916,11110609915,56.648438
11110612195,-0.7082755,-9.781859,0.28235307,11110612195,-0.002443461,-0.012217305,0.0012217305,11110612195,56.648438
11110614476,-0.70348984,-9.777073,0.28235307,11110614476,-0.0036651916,-0.012217305,0,11110614476,56.648438
11110616771,-0.7178468,-9.767502,0.28713873,11110616771,-0.002443461,-0.012217305,0.002443461,11110616771,56.703125
11110619028,-0.6987042,-9.762716,0.28713873,11110619028,-0.0036651916,-0.010995574,0.0012217305,11110619028,56.703125
11110621308,-0.7082755,-9.772287,0.2632105,11110621308,-0.0012217305,-0.010995574,0.0012217305,11110621308,56.703125
11110623589,-0.6939186,-9.781859,0.28235307,11110623589,-0.0012217305,-0.012217305,0.002443461,11110623589,56.703125
11110625869,-0.7178468,-9.79143,0.29192436,11110625869,-0.0036651916,-0.013439035,0.0036651916,11110625869,56.703125
11110628164,-0.71306115,-9.79143,0.2632105,11110628164,-0.004886922,-0.009773844,0.0036651916,11110628164,56.703125
11110630445,-0.6987042,-9.772287,0.2632105,11110630445,-0.0012217305,-0.009773844,0.0036651916,11110630445,56.703125
11110632725,-0.6891329,-9.777073,0.27756742,11110632725,-0.0036651916,-0.009773844,0.0036651916,11110632725,56.703125
11110635005,-0.71306115,-9.762716,0.2727818,11110635005,-0.0012217305,-0.010995574,0.0036651916,11110635005,56.628906
11110637297,-0.7082755,-9.767502,0.27756742,11110637297,-0.0012217305,-0.012217305,0.0012217305,11110637297,56.628906
11110639578,-0.71306115,-9.772287,0.28713873,11110639578,0,-0.010995574,0.002443461,11110639578,56.628906
11110641858,-0.7082755,-9.762716,0.26799613,11110641858,-0.002443461,-0.009773844,0.0012217305,11110641858,56.628906
11110644138,-0.70348984,-9.777073,0.27756742,11110644138,-0.002443461,-0.010995574,0.0036651916,11110644138,56.628906
11110646763,-0.7082755,-9.781859,0.27756742,11110646763,-0.0012217305,-0.010995574,0.0036651916,11110646763,56.628906
11110648687,-0.7082755,-9.777073,0.2727818,11110648687,-0.0012217305,-0.010995574,0.002443461,11110648687,56.628906
11110650968,-0.72741807,-9.781859,0.26799613,11110650968,-0.0012217305,-0.009773844,0.002443461,11110650968,56.628906
11110653248,-0.7082755,-9.781859,0.2632105,11110653248,-0.0012217305,-0.010995574,0.002443461,11110653248,56.679688
11110655528,-0.7178468,-9.781859,0.26799613,11110655528,-0.004886922,-0.012217305,0.002443461,11110655528,56.679688
11110657834,-0.70348984,-9.753145,0.2632105,11110657834,-0.002443461,-0.012217305,0.002443461,11110657834,56.679688
11110660114,-0.6987042,-9.753145,0.2536392,11110660114,-0.002443461,-0.010995574,0.0036651916,11110660114,56.679688
11110662394,-0.71306115,-9.767502,0.2727818,11110662394,-0.002443461,-0.010995574,0.0012217305,11110662394,56.679688
11110664675,-0.71306115,-9.757931,0.2632105,11110664675,-0.0012217305,-0.012217305,0.0012217305,11110664675,56.679688
11110666953,-0.7178468,-9.74836,0.2727818,11110666953,-0.002443461,-0.012217305,0.0036651916,11110666953,56.679688
11110669233,-0.70348984,-9.757931,0.28713873,11110669233,-0.0012217305,-0.014660766,0.004886922,11110669233,56.679688
11110671513,-0.70348984,-9.781859,0.28235307,11110671513,-0.002443461,-0.012217305,0.002443461,11110671513,56.628906
11110673793,-0.70348984,-9.781859,0.26799613,11110673793,0.0012217305,-0.010995574,0.0012217305,11110673793,56.628906
11110676074,-0.6987042,-9.753145,0.2632105,11110676074,-0.0012217305,-0.012217305,0.002443461,11110676074,56.628906
11110678370,-0.70348984,-9.777073,0.26799613,11110678370,-0.002443461,-0.010995574,0.0036651916,11110678370,56.628906
11110680651,-0.7082755,-9.772287,0.27756742,11110680651,0,-0.012217305,0,11110680651,56.628906
11110682931,-0.70348984,-9.753145,0.2536392,11110682931,-0.002443461,-0.012217305,0.0036651916,11110682931,56.628906
11110685211,-0.71306115,-9.772287,0.24885355,11110685211,-0.004886922,-0.010995574,0.002443461,11110685211,56.628906
11110687478,-0.7082755,-9.79143,0.27756742,11110687478,-0.0012217305,-0.010995574,0.004886922,11110687478,56.628906
11110689758,-0.7082755,-9.767502,0.28713873,11110689758,-0.0012217305,-0.009773844,0.0036651916,11110689758,56.671875
11110692039,-0.7082755,-9.757931,0.27756742,11110692039,0,-0.010995574,0.0036651916,11110692039,56.671875
11110694319,-0.7178468,-9.786645,0.24885355,11110694319,-0.0012217305,-0.010995574,0.0036651916,11110694319,56.671875
11110696799,-0.6939186,-9.777073,0.26799613,11110696799,-0.002443461,-0.009773844,0.0036651916,11110696799,56.671875
11110698890,-0.6939186,-9.777073,0.27756742,11110698890,-0.004886922,-0.009773844,0.0036651916,11110698890,56.671875
11110701170,-0.71306115,-9.777073,0.30149564,11110701170,-0.0012217305,-0.009773844,0.002443461,11110701170,56.671875
11110703450,-0.6891329,-9.772287,0.2727818,11110703450,0.002443461,-0.010995574,0.002443461,11110703450,56.671875
11110705731,-0.71306115,-9.781859,0.29192436,11110705731,0,-0.010995574,0.0012217305,11110705731,56.671875
11110708012,-0.7082755,-9.777073,0.2727818,11110708012,-0.0012217305,-0.009773844,0.002443461,11110708012,56.648438
11110710292,-0.7082755,-9.777073,0.26799613,11110710292,0,-0.009773844,0.002443461,11110710292,56.648438
11110712572,-0.7178468,-9.762716,0.25842485,11110712572,0,-0.009773844,0.0012217305,11110712572,56.648438
11110714852,-0.7082755,-9.757931,0.2632105,11110714852,-0.002443461,-0.009773844,0.0036651916,11110714852,56.648438
11110717156,-0.7178468,-9.777073,0.2727818,11110717156,-0.0012217305,-0.008552114,0.004886922,11110717156,56.648438
11110719436,-0.71306115,-9.772287,0.23928227,11110719436,0.0036651916,-0.013439035,0.0036651916,11110719436,56.648438
11110721716,-0.7082755,-9.767502,0.2536392,11110721716,-0.002443461,-0.009773844,0.0036651916,11110721716,56.648438
11110723997,-0.7082755,-9.781859,0.2632105,11110723997,-0.0012217305,-0.008552114,0.0012217305,11110723997,56.648438
11110726277,-0.6891329,-9.767502,0.27756742,11110726277,-0.0012217305,-0.008552114,0.002443461,11110726277,56.63672
11110728547,-0.72263247,-9.777073,0.27756742,11110728547,-0.0036651916,-0.010995574,0.004886922,11110728547,56.63672
11110730828,-0.70348984,-9.753145,0.2727818,11110730828,-0.002443461,-0.009773844,0.002443461,11110730828,56.63672
11110733108,-0.7082755,-9.772287,0.26799613,11110733108,-0.0012217305,-0.009773844,0.002443461,11110733108,56.63672
11110735388,-0.71306115,-9.781859,0.26799613,11110735388,-0.002443461,-0.013439035,0.002443461,11110735388,56.63672
11110737691,-0.70348984,-9.777073,0.29192436,11110737691,-0.002443461,-0.009773844,0.0012217305,11110737691,56.63672
11110739971,-0.70348984,-9.762716,0.28713873,11110739971,-0.002443461,-0.010995574,0.0036651916,11110739971,56.63672
11110742251,-0.72263247,-9.777073,0.2632105,11110742251,-0.0036651916,-0.009773844,0.002443461,11110742251,56.63672
11110744532,-0.70348984,-9.767502,0.28235307,11110744532,-0.002443461,-0.010995574,0.0036651916,11110744532,56.65625
11110746824,-0.7082755,-9.772287,0.27756742,11110746824,-0.004886922,-0.009773844,0.002443461,11110746824,56.65625
11110749105,-0.72263247,-9.757931,0.28713873,11110749105,-0.0036651916,-0.013439035,0.0012217305,11110749105,56.65625
11110751385,-0.71306115,-9.767502,0.28713873,11110751385,-0.0036651916,-0.010995574,0.002443461,11110751385,56.65625
11110753665,-0.70348984,-9.777073,0.29192436,11110753665,0.0012217305,-0.012217305,0.004886922,11110753665,56.65625
11110755945,-0.6987042,-9.796216,0.29671,11110755945,-0.002443461,-0.010995574,0.004886922,11110755945,56.65625
11110758225,-0.7082755,-9.796216,0.27756742,11110758225,-0.0012217305,-0.009773844,0,11110758225,56.65625
11110760506,-0.6987042,-9.762716,0.28235307,11110760506,-0.002443461,-0.012217305,0.002443461,11110760506,56.65625
11110762786,-0.72263247,-9.757931,0.27756742,11110762786,-0.0036651916,-0.010995574,0.0012217305,11110762786,56.695312
11110765066,-0.7082755,-9.781859,0.28713873,11110765066,-0.0036651916,-0.009773844,0.002443461,11110765066,56.695312
11110767345,-0.72741807,-9.767502,0.2727818,11110767345,-0.0061086523,-0.009773844,0.002443461,11110767345,56.695312
11110769625,-0.7082755,-9.777073,0.28235307,11110769625,-0.004886922,-0.008552114,0.0012217305,11110769625,56.695312
11110771905,-0.7082755,-9.777073,0.27756742,11110771905,0.0012217305,-0.012217305,0.0036651916,11110771905,56.695312
11110774186,-0.6891329,-9.777073,0.28235307,11110774186,-0.0036651916,-0.010995574,0.0036651916,11110774186,56.695312
11110776776,-0.71306115,-9.767502,0.2727818,11110776776,-0.004886922,-0.012217305,0.0036651916,11110776776,56.695312
11110778748,-0.72263247,-9.74836,0.29192436,11110778748,-0.0012217305,-0.014660766,0,11110778748,56.695312
11110781028,-0.71306115,-9.772287,0.29192436,11110781028,-0.0036651916,-0.012217305,0.002443461,11110781028,56.664062
11110783309,-0.72263247,-9.781859,0.29192436,11110783309,-0.004886922,-0.009773844,0.002443461,11110783309,56.664062
11110785589,-0.71306115,-9.79143,0.2727818,11110785589,-0.004886922,-0.008552114,0.0036651916,11110785589,56.664062
11110787878,-0.71306115,-9.772287,0.26799613,11110787878,0,-0.010995574,0.004886922,11110787878,56.664062
11110790159,-0.71306115,-9.772287,0.27756742,11110790159,-0.0012217305,-0.012217305,0.0012217305,11110790159,56.664062
11110792439,-0.70348984,-9.762716,0.30149564,11110792439,-0.0012217305,-0.012217305,0.0012217305,11110792439,56.664062
11110794719,-0.7178468,-9.79143,0.28713873,11110794719,-0.002443461,-0.010995574,0.0012217305,11110794719,56.664062
11110797003,-0.6987042,-9.781859,0.28713873,11110797003,-0.002443461,-0.009773844,0.0012217305,11110797003,56.664062
11110799283,-0.7082755,-9.772287,0.28235307,11110799283,-0.002443461,-0.009773844,0.002443461,11110799283,56.63672
11110801564,-0.71306115,-9.777073,0.28713873,11110801564,0,-0.009773844,0.002443461,11110801564,56.63672
11110803844,-0.6987042,-9.772287,0.27756742,11110803844,-0.0012217305,-0.010995574,0.0036651916,11110803844,56.63672
11110806124,-0.7082755,-9.786645,0.2536392,11110806124,-0.0036651916,-0.009773844,0.002443461,11110806124,56.63672
11110808427,-0.70348984,-9.777073,0.28235307,11110808427,-0.004886922,-0.012217305,0.0012217305,11110808427,56.63672
11110810707,-0.71306115,-9.757931,0.26799613,11110810707,-0.0012217305,-0.012217305,0.002443461,11110810707,56.63672
11110812987,-0.71306115,-9.757931,0.30149564,11110812987,-0.002443461,-0.010995574,0.002443461,11110812987,56.63672
11110815268,-0.7082755,-9.781859,0.29192436,11110815268,-0.0012217305,-0.010995574,0.0036651916,11110815268,56.63672
11110817549,-0.7178468,-9.777073,0.3062813,11110817549,-0.0012217305,-0.012217305,0.0036651916,11110817549,56.671875
11110819830,-0.70348984,-9.767502,0.29192436,11110819830,0,-0.013439035,0.0036651916,11110819830,56.671875
11110822110,-0.71306115,-9.781859,0.28235307,11110822110,-0.002443461,-0.012217305,0.002443461,11110822110,56.671875
11110824390,-0.6891329,-9.772287,0.29192436,11110824390,-0.0012217305,-0.009773844,0.002443461,11110824390,56.671875
11110826797,-0.71306115,-9.777073,0.29192436,11110826797,-0.002443461,-0.012217305,0.002443461,11110826797,56.671875
11110828959,-0.7178468,-9.753145,0.26799613,11110828959,-0.002443461,-0.013439035,0.002443461,11110828959,56.671875
11110831239,-0.71306115,-9.753145,0.28235307,11110831239,0,-0.012217305,0.0036651916,11110831239,56.671875
11110833520,-0.7082755,-9.777073,0.28713873,11110833520,0,-0.012217305,0.0012217305,11110833520,56.671875
11110835800,-0.7082755,-9.757931,0.28235307,11110835800,-0.004886922,-0.012217305,0.0012217305,11110835800,56.63672
11110838071,-0.70348984,-9.786645,0.28713873,11110838071,-0.0012217305,-0.012217305,0.0012217305,11110838071,56.63672
11110840352,-0.71306115,-9.762716,0.28235307,11110840352,-0.002443461,-0.012217305,0.002443461,11110840352,56.63672
11110842632,-0.72741807,-9.767502,0.27756742,11110842632,0.0012217305,-0.012217305,0.0036651916,11110842632,56.63672
11110844912,-0.72741807,-9.777073,0.29192436,11110844912,-0.0012217305,-0.010995574,0.004886922,11110844912,56.63672
11110847216,-0.70348984,-9.777073,0.29192436,11110847216,-0.0036651916,-0.010995574,0.002443461,11110847216,56.63672
11110849496,-0.70348984,-9.762716,0.28713873,11110849496,-0.0012217305,-0.012217305,0.0036651916,11110849496,56.63672
11110851776,-0.72263247,-9.777073,0.28713873,11110851776,0,-0.013439035,0.002443461,11110851776,56.63672
11110854057,-0.7082755,-9.762716,0.27756742,11110854057,-0.002443461,-0.012217305,0.002443461,11110854057,56.63672
11110856798,-0.6987042,-9.777073,0.28235307,11110856798,-0.002443461,-0.012217305,0.0012217305,11110856798,56.63672
11110858604,-0.72263247,-9.753145,0.2632105,11110858604,0,-0.013439035,0.0036651916,11110858604,56.63672
11110860884,-0.7082755,-9.767502,0.28713873,11110860884,0,-0.012217305,0.002443461,11110860884,56.63672
11110863164,-0.70348984,-9.772287,0.27756742,11110863164,-0.002443461,-0.013439035,0.0036651916,11110863164,56.63672
11110865445,-0.6987042,-9.781859,0.28235307,11110865445,0,-0.012217305,0.002443461,11110865445,56.63672
11110867752,-0.72741807,-9.767502,0.26799613,11110867752,-0.002443461,-0.010995574,0.002443461,11110867752,56.63672
11110870033,-0.71306115,-9.772287,0.2632105,11110870033,-0.002443461,-0.010995574,0.0036651916,11110870033,56.63672
11110872313,-0.71306115,-9.753145,0.2727818,11110872313,-0.0036651916,-0.013439035,0.004886922,11110872313,56.679688
11110874593,-0.7082755,-9.777073,0.28235307,11110874593,-0.0012217305,-0.012217305,0.0036651916,11110874593,56.679688
11110876858,-0.7082755,-9.777073,0.28235307,11110876858,0.0012217305,-0.009773844,0.002443461,11110876858,56.679688
11110879138,-0.6939186,-9.772287,0.29671,11110879138,-0.0012217305,-0.010995574,0.002443461,11110879138,56.679688
11110881419,-0.7178468,-9.767502,0.28235307,11110881419,0,-0.009773844,0.0036651916,11110881419,56.679688
11110883699,-0.70348984,-9.781859,0.28235307,11110883699,-0.0012217305,-0.009773844,0.004886922,11110883699,56.679688
11110885979,-0.7178468,-9.781859,0.28713873,11110885979,-0.0012217305,-0.012217305,0.0036651916,11110885979,56.679688
11110888274,-0.7178468,-9.786645,0.29192436,11110888274,0.0012217305,-0.014660766,0.0036651916,11110888274,56.679688
11110890554,-0.6939186,-9.772287,0.26799613,11110890554,0,-0.013439035,0.002443461,11110890554,56.63672
11110892834,-0.6987042,-9.777073,0.2727818,11110892834,0.0012217305,-0.012217305,0.002443461,11110892834,56.63672
11110895115,-0.7082755,-9.757931,0.27756742,11110895115,0.0036651916,-0.013439035,0.002443461,11110895115,56.63672
11110897395,-0.71306115,-9.767502,0.27756742,11110897395,0,-0.012217305,0.0036651916,11110897395,56.63672
11110899676,-0.70348984,-9.757931,0.26799613,11110899676,-0.002443461,-0.010995574,0.0036651916,11110899676,56.63672
11110901956,-0.7082755,-9.777073,0.27756742,11110901956,0,-0.012217305,0.004886922,11110901956,56.63672
11110904236,-0.6939186,-9.786645,0.28713873,11110904236,-0.002443461,-0.012217305,0.0036651916,11110904236,56.63672
11110906764,-0.72741807,-9.767502,0.29671,11110906764,-0.004886922,-0.012217305,0.004886922,11110906764,56.63672
11110908807,-0.7178468,-9.786645,0.29671,11110908807,-0.0036651916,-0.010995574,0.004886922,11110908807,56.710938
11110911088,-0.70348984,-9.786645,0.28235307,11110911088,-0.0012217305,-0.010995574,0.002443461,11110911088,56.710938
11110913368,-0.72741807,-9.781859,0.28235307,11110913368,0,-0.013439035,0.0012217305,11110913368,56.710938
11110915648,-0.7082755,-9.767502,0.26799613,11110915648,-0.0012217305,-0.013439035,0.0012217305,11110915648,56.710938
11110917929,-0.70348984,-9.772287,0.27756742,11110917929,-0.002443461,-0.012217305,0.002443461,11110917929,56.710938
11110920209,-0.71306115,-9.781859,0.26799613,11110920209,0,-0.010995574,0.0036651916,11110920209,56.710938
11110922489,-0.70348984,-9.767502,0.28235307,11110922489,0,-0.012217305,0.0036651916,11110922489,56.710938
11110924770,-0.7178468,-9.772287,0.30149564,11110924770,0,-0.009773844,0.0036651916,11110924770,56.710938
11110927072,-0.71306115,-9.767502,0.28235307,11110927072,-0.0012217305,-0.009773844,0.002443461,11110927072,56.664062
11110929353,-0.72741807,-9.777073,0.2727818,11110929353,-0.002443461,-0.010995574,0.002443461,11110929353,56.664062
11110931633,-0.72263247,-9.79143,0.27756742,11110931633,-0.002443461,-0.013439035,0.0012217305,11110931633,56.664062
11110933913,-0.7082755,-9.777073,0.27756742,11110933913,-0.0036651916,-0.012217305,0,11110933913,56.664062
11110936193,-0.6939186,-9.777073,0.27756742,11110936193,0,-0.009773844,0.002443461,11110936193,56.664062
11110938475,-0.70348984,-9.777073,0.27756742,11110938475,0,-0.013439035,0.0012217305,11110938475,56.664062
11110940755,-0.7178468,-9.757931,0.30149564,11110940755,0.0012217305,-0.010995574,0.0012217305,11110940755,56.664062
11110943036,-0.71306115,-9.796216,0.29192436,11110943036,-0.002443461,-0.008552114,0.002443461,11110943036,56.664062
11110945316,-0.71306115,-9.767502,0.29671,11110945316,0,-0.010995574,0.004886922,11110945316,56.63672
11110947608,-0.6891329,-9.786645,0.28235307,11110947608,0,-0.013439035,0.0036651916,11110947608,56.63672
11110949888,-0.71306115,-9.762716,0.2727818,11110949888,-0.0012217305,-0.009773844,0.0036651916,11110949888,56.63672
11110952169,-0.7082755,-9.757931,0.26799613,11110952169,-0.0036651916,-0.010995574,0.0036651916,11110952169,56.63672
11110954449,-0.70348984,-9.767502,0.2632105,11110954449,-0.004886922,-0.012217305,0.0036651916,11110954449,56.63672
11110956767,-0.70348984,-9.781859,0.2727818,11110956767,-0.0012217305,-0.010995574,0.0036651916,11110956767,56.63672
11110959000,-0.7178468,-9.777073,0.2727818,11110959000,-0.002443461,-0.010995574,0.002443461,11110959000,56.63672
11110961281,-0.7082755,-9.767502,0.28235307,11110961281,-0.002443461,-0.012217305,0.002443461,11110961281,56.63672
11110963561,-0.6987042,-9.772287,0.29671,11110963561,-0.002443461,-0.012217305,0.0036651916,11110963561,56.679688
11110965841,-0.6891329,-9.762716,0.27756742,11110965841,-0.0012217305,-0.012217305,0.002443461,11110965841,56.679688
11110968143,-0.7082755,-9.781859,0.2632105,11110968143,-0.0012217305,-0.014660766,0.0012217305,11110968143,56.679688
11110970423,-0.6987042,-9.772287,0.2727818,11110970423,-0.0036651916,-0.013439035,0.0012217305,11110970423,56.679688
11110972703,-0.72741807,-9.79143,0.26799613,11110972703,-0.0012217305,-0.012217305,0.0012217305,11110972703,56.679688
11110974984,-0.7178468,-9.786645,0.28713873,11110974984,-0.0036651916,-0.013439035,0.002443461,11110974984,56.679688
11110977253,-0.71306115,-9.781859,0.28713873,11110977253,-0.002443461,-0.010995574,0.002443461,11110977253,56.679688
11110979533,-0.7178468,-9.777073,0.28713873,11110979533,-0.0012217305,-0.015882496,0,11110979533,56.679688
11110981813,-0.7082755,-9.767502,0.29192436,11110981813,-0.002443461,-0.013439035,0.002443461,11110981813,56.671875
11110984093,-0.70348984,-9.767502,0.29192436,11110984093,-0.0012217305,-0.012217305,0.0012217305,11110984093,56.671875
11110986798,-0.7082755,-9.772287,0.2727818,11110986798,-0.002443461,-0.012217305,0.002443461,11110986798,56.671875
11110988675,-0.70348984,-9.772287,0.29192436,11110988675,-0.0036651916,-0.009773844,0.0012217305,11110988675,56.671875
11110990955,-0.71306115,-9.777073,0.27756742,11110990955,-0.004886922,-0.013439035,0.0036651916,11110990955,56.671875
11110993236,-0.70348984,-9.777073,0.2632105,11110993236,-0.0036651916,-0.010995574,0.0036651916,11110993236,56.671875
11110995516,-0.7082755,-9.786645,0.25842485,11110995516,-0.002443461,-0.013439035,0.0036651916,11110995516,56.671875
11110997800,-0.70348984,-9.772287,0.28235307,11110997800,-0.0036651916,-0.013439035,0.002443461,11110997800,56.671875
11111000080,-0.7082755,-9.757931,0.28235307,11111000080,-0.0036651916,-0.012217305,0.002443461,11111000080,56.628906
11111002360,-0.7082755,-9.772287,0.2727818,11111002360,-0.002443461,-0.012217305,0.002443461,11111002360,56.628906
11111004641,-0.7082755,-9.781859,0.2727818,11111004641,-0.0036651916,-0.010995574,0.002443461,11111004641,56.628906
11111006920,-0.71306115,-9.772287,0.28235307,11111006920,-0.0036651916,-0.013439035,0.002443461,11111006920,56.628906
11111009201,-0.7178468,-9.772287,0.28713873,11111009201,-0.0036651916,-0.013439035,0.0012217305,11111009201,56.628906
11111011481,-0.7082755,-9.786645,0.28235307,11111011481,-0.0012217305,-0.012217305,0.0036651916,11111011481,56.628906
11111013761,-0.6987042,-9.772287,0.2727818,11111013761,-0.002443461,-0.012217305,0.002443461,11111013761,56.628906
11111016041,-0.7082755,-9.79143,0.2727818,11111016041,-0.002443461,-0.009773844,0.0012217305,11111016041,56.628906
11111018322,-0.72263247,-9.757931,0.26799613,11111018322,-0.0036651916,-0.012217305,0.0036651916,11111018322,56.679688
11111020603,-0.71306115,-9.786645,0.28713873,11111020603,-0.0012217305,-0.013439035,0.0036651916,11111020603,56.679688
11111022883,-0.71306115,-9.786645,0.26799613,11111022883,0,-0.013439035,0.002443461,11111022883,56.679688
11111025163,-0.71306115,-9.777073,0.28235307,11111025163,0.0012217305,-0.009773844,0.002443461,11111025163,56.679688
11111027462,-0.71306115,-9.772287,0.27756742,11111027462,-0.0012217305,-0.010995574,0.0012217305,11111027462,56.679688
11111029742,-0.6987042,-9.777073,0.27756742,11111029742,-0.0036651916,-0.012217305,0.002443461,11111029742,56.679688
11111032022,-0.70348984,-9.777073,0.2727818,11111032022,-0.0012217305,-0.010995574,0.0036651916,11111032022,56.679688
11111034302,-0.7178468,-9.772287,0.27756742,11111034302,-0.002443461,-0.012217305,0.002443461,11111034302,56.679688
11111036763,-0.72263247,-9.781859,0.26799613,11111036763,-0.0036651916,-0.010995574,0.0036651916,11111036763,56.671875
11111038878,-0.70348984,-9.781859,0.2632105,11111038878,0,-0.009773844,0.0036651916,11111038878,56.671875
11111041158,-0.6987042,-9.781859,0.2632105,11111041158,-0.0036651916,-0.014660766,0.002443461,11111041158,56.671875
11111043438,-0.72741807,-9.757931,0.29192436,11111043438,-0.0036651916,-0.013439035,0.002443461,11111043438,56.671875
11111045718,-0.71306115,-9.772287,0.2727818,11111045718,-0.0036651916,-0.013439035,0.002443461,11111045718,56.671875
11111048001,-0.7082755,-9.767502,0.26799613,11111048001,-0.0012217305,-0.015882496,0,11111048001,56.671875
11111050281,-0.7082755,-9.777073,0.26799613,11111050281,0,-0.012217305,0.0036651916,11111050281,56.671875
11111052562,-0.6939186,-9.753145,0.24885355,11111052562,-0.0012217305,-0.010995574,0.0036651916,11111052562,56.671875
11111054842,-0.72263247,-9.767502,0.27756742,11111054842,-0.002443461,-0.012217305,0.002443461,11111054842,56.671875
11111057131,-0.70348984,-9.781859,0.25842485,11111057131,-0.004886922,-0.013439035,0.0036651916,11111057131,56.671875
11111059411,-0.70348984,-9.781859,0.26799613,11111059411,-0.002443461,-0.009773844,0.004886922,11111059411,56.671875
11111061692,-0.7082755,-9.777073,0.26799613,11111061692,-0.002443461,-0.013439035,0.0036651916,11111061692,56.671875
11111063972,-0.71306115,-9.781859,0.2727818,11111063972,-0.0036651916,-0.010995574,0.0012217305,11111063972,56.671875
11111066252,-0.7082755,-9.786645,0.24885355,11111066252,-0.002443461,-0.013439035,0.0012217305,11111066252,56.671875
11111068533,-0.6939186,-9.772287,0.2727818,11111068533,-0.002443461,-0.012217305,0.0036651916,11111068533,56.671875
11111070813,-0.6987042,-9.767502,0.27756742,11111070813,-0.002443461,-0.013439035,0.002443461,11111070813,56.671875
11111073094,-0.6987042,-9.772287,0.25842485,11111073094,-0.0036651916,-0.012217305,0.0012217305,11111073094,56.679688
11111075374,-0.6987042,-9.762716,0.23928227,11111075374,-0.0036651916,-0.010995574,0.002443461,11111075374,56.679688
11111077667,-0.70348984,-9.767502,0.2440679,11111077667,-0.0012217305,-0.012217305,0.0012217305,11111077667,56.679688
11111079947,-0.70348984,-9.781859,0.2632105,11111079947,-0.002443461,-0.010995574,0,11111079947,56.679688
11111082227,-0.70348984,-9.772287,0.2727818,11111082227,-0.0036651916,-0.010995574,0.0012217305,11111082227,56.679688
11111084507,-0.71306115,-9.772287,0.26799613,11111084507,-0.002443461,-0.008552114,0.002443461,11111084507,56.679688
11111086787,-0.71306115,-9.777073,0.23449662,11111086787,0,-0.009773844,0.002443461,11111086787,56.679688
11111089068,-0.7178468,-9.767502,0.2632105,11111089068,-0.0012217305,-0.009773844,0.002443461,11111089068,56.679688
11111091348,-0.71306115,-9.781859,0.2632105,11111091348,-0.004886922,-0.009773844,0.0012217305,11111091348,56.6875
11111093628,-0.70348984,-9.767502,0.2536392,11111093628,-0.002443461,-0.009773844,0.0012217305,11111093628,56.6875
11111095908,-0.6987042,-9.781859,0.2632105,11111095908,0.002443461,-0.010995574,0.0012217305,11111095908,56.6875
11111098192,-0.71306115,-9.762716,0.2440679,11111098192,-0.002443461,-0.009773844,0.0036651916,11111098192,56.6875
11111100472,-0.7082755,-9.786645,0.26799613,11111100472,-0.002443461,-0.010995574,0.002443461,11111100472,56.6875
11111102753,-0.70348984,-9.762716,0.26799613,11111102753,-0.002443461,-0.010995574,0.002443461,11111102753,56.6875
11111105033,-0.7178468,-9.762716,0.2536392,11111105033,-0.0061086523,-0.008552114,0.0036651916,11111105033,56.6875
11111107310,-0.6939186,-9.777073,0.23928227,11111107310,-0.004886922,-0.010995574,0.002443461,11111107310,56.6875
11111109590,-0.70348984,-9.767502,0.28235307,11111109590,-0.0036651916,-0.014660766,0,11111109590,56.679688
11111111870,-0.70348984,-9.777073,0.2727818,11111111870,-0.002443461,-0.012217305,0.0012217305,11111111870,56.679688
11111114151,-0.72263247,-9.777073,0.25842485,11111114151,-0.002443461,-0.010995574,0.004886922,11111114151,56.679688
11111116802,-0.70348984,-9.777073,0.24885355,11111116802,-0.0012217305,-0.008552114,0.0036651916,11111116802,56.679688
11111118726,-0.70348984,-9.753145,0.25842485,11111118726,-0.002443461,-0.008552114,0.002443461,11111118726,56.679688
11111121007,-0.6987042,-9.772287,0.24885355,11111121007,-0.002443461,-0.009773844,0.0012217305,11111121007,56.679688
11111123287,-0.71306115,-9.781859,0.25842485,11111123287,-0.0012217305,-0.009773844,0.002443461,11111123287,56.679688
11111125567,-0.6987042,-9.757931,0.2632105,11111125567,-0.0012217305,-0.013439035,0.002443461,11111125567,56.679688
11111127853,-0.6939186,-9.772287,0.2727818,11111127853,-0.0012217305,-0.010995574,0.002443461,11111127853,56.679688
11111130134,-0.6987042,-9.772287,0.24885355,11111130134,-0.002443461,-0.010995574,0.002443461,11111130134,56.679688
11111132414,-0.72263247,-9.757931,0.25842485,11111132414,-0.002443461,-0.009773844,0.0012217305,11111132414,56.679688
11111134694,-0.70348984,-9.772287,0.27756742,11111134694,-0.002443461,-0.009773844,0.002443461,11111134694,56.679688
11111136990,-0.71306115,-9.786645,0.28235307,11111136990,-0.002443461,-0.009773844,0.0036651916,11111136990,56.679688
11111139270,-0.72263247,-9.781859,0.29192436,11111139270,-0.0061086523,-0.007330383,0.0012217305,11111139270,56.679688
11111141550,-0.70348984,-9.781859,0.3062813,11111141550,0,-0.009773844,0.0012217305,11111141550,56.679688
11111143830,-0.6987042,-9.767502,0.28713873,11111143830,-0.0012217305,-0.010995574,0.0036651916,11111143830,56.679688
11111146111,-0.7082755,-9.767502,0.27756742,11111146111,-0.0012217305,-0.010995574,0.0036651916,11111146111,56.671875
11111148379,-0.72741807,-9.772287,0.26799613,11111148379,-0.0012217305,-0.009773844,0.002443461,11111148379,56.671875
11111150659,-0.6987042,-9.767502,0.25842485,11111150659,0,-0.012217305,0.002443461,11111150659,56.671875
11111152940,-0.6939186,-9.767502,0.2632105,11111152940,-0.0012217305,-0.009773844,0.002443461,11111152940,56.671875
11111155220,-0.7082755,-9.767502,0.2727818,11111155220,-0.0012217305,-0.009773844,0.0012217305,11111155220,56.671875
11111157527,-0.70348984,-9.777073,0.27756742,11111157527,-0.0036651916,-0.010995574,0.002443461,11111157527,56.671875
11111159807,-0.71306115,-9.781859,0.25842485,11111159807,-0.0036651916,-0.010995574,0.0012217305,11111159807,56.671875
11111162087,-0.72741807,-9.767502,0.26799613,11111162087,-0.002443461,-0.010995574,0.0012217305,11111162087,56.671875
11111164367,-0.71306115,-9.757931,0.28235307,11111164367,-0.0036651916,-0.009773844,0.002443461,11111164367,56.671875
11111166799,-0.72263247,-9.767502,0.30149564,11111166799,-0.0036651916,-0.007330383,0.002443461,11111166799,56.671875
11111168914,-0.72263247,-9.757931,0.28713873,11111168914,-0.004886922,-0.0061086523,0.0036651916,11111168914,56.671875
11111171194,-0.72741807,-9.777073,0.27756742,11111171194,0,-0.009773844,0.0036651916,11111171194,56.671875
11111173474,-0.71306115,-9.79143,0.28713873,11111173474,-0.002443461,-0.010995574,0.0012217305,11111173474,56.671875
11111175754,-0.70348984,-9.777073,0.28713873,11111175754,0,-0.009773844,0.002443461,11111175754,56.671875
11111178050,-0.72263247,-9.762716,0.2727818,11111178050,0.0012217305,-0.009773844,0.0036651916,11111178050,56.671875
11111180331,-0.7082755,-9.772287,0.28235307,11111180331,-0.0036651916,-0.010995574,0.002443461,11111180331,56.671875
11111182611,-0.7082755,-9.767502,0.27756742,11111182611,0,-0.010995574,0.002443461,11111182611,56.6875
11111184891,-0.71306115,-9.772287,0.25842485,11111184891,0,-0.010995574,0.002443461,11111184891,56.6875
11111187180,-0.6987042,-9.767502,0.29192436,11111187180,0,-0.010995574,0.002443461,11111187180,56.6875
11111189460,-0.70348984,-9.777073,0.2632105,11111189460,-0.0012217305,-0.012217305,0,11111189460,56.6875
11111191740,-0.7082755,-9.767502,0.28713873,11111191740,-0.0012217305,-0.010995574,0.0012217305,11111191740,56.6875
11111194020,-0.7082755,-9.772287,0.27756742,11111194020,-0.0036651916,-0.010995574,0.002443461,11111194020,56.6875
11111196764,-0.71306115,-9.777073,0.28713873,11111196764,-0.0012217305,-0.009773844,0.0036651916,11111196764,56.6875
11111198593,-0.7178468,-9.781859,0.2727818,11111198593,-0.0012217305,-0.004886922,0.004886922,11111198593,56.6875
11111200874,-0.70348984,-9.786645,0.2727818,11111200874,-0.0012217305,-0.008552114,0.0012217305,11111200874,56.671875
11111203154,-0.6891329,-9.757931,0.26799613,11111203154,-0.002443461,-0.010995574,0.002443461,11111203154,56.671875
11111205434,-0.72263247,-9.757931,0.29192436,11111205434,-0.0036651916,-0.010995574,0,11111205434,56.671875
11111207716,-0.71306115,-9.767502,0.28713873,11111207716,-0.0012217305,-0.012217305,0,11111207716,56.671875
11111209996,-0.7178468,-9.777073,0.2727818,11111209996,-0.0012217305,-0.010995574,0.0012217305,11111209996,56.671875
11111212277,-0.7322037,-9.772287,0.27756742,11111212277,-0.0012217305,-0.012217305,0.0012217305,11111212277,56.671875
11111214557,-0.7322037,-9.767502,0.27756742,11111214557,-0.0036651916,-0.010995574,0.0036651916,11111214557,56.671875
11111216836,-0.7082755,-9.786645,0.28235307,11111216836,-0.002443461,-0.009773844,0.0012217305,11111216836,56.671875
11111219116,-0.7178468,-9.777073,0.28235307,11111219116,-0.0036651916,-0.012217305,0.002443461,11111219116,56.63672
11111221396,-0.7082755,-9.777073,0.26799613,11111221396,-0.0012217305,-0.009773844,0.002443461,11111221396,56.63672
11111223677,-0.71306115,-9.772287,0.28235307,11111223677,0.0012217305,-0.012217305,0.0012217305,11111223677,56.63672
11111225957,-0.72741807,-9.772287,0.2727818,11111225957,0,-0.009773844,0.002443461,11111225957,56.63672
11111228243,-0.72263247,-9.781859,0.28235307,11111228243,-0.0036651916,-0.010995574,0.0036651916,11111228243,56.63672
11111230523,-0.7082755,-9.767502,0.29192436,11111230523,-0.0012217305,-0.009773844,0,11111230523,56.63672
11111232803,-0.7178468,-9.762716,0.28235307,11111232803,-0.002443461,-0.012217305,0.0012217305,11111232803,56.63672
11111235084,-0.70348984,-9.762716,0.2727818,11111235084,-0.0036651916,-0.012217305,0.002443461,11111235084,56.63672
11111237383,-0.70348984,-9.772287,0.28235307,11111237383,-0.0012217305,-0.012217305,0.002443461,11111237383,56.648438
11111239663,-0.70348984,-9.767502,0.2727818,11111239663,-0.002443461,-0.009773844,0.0012217305,11111239663,56.648438
11111241944,-0.6987042,-9.79143,0.28235307,11111241944,-0.002443461,-0.009773844,0.0036651916,11111241944,56.648438
11111244224,-0.7082755,-9.767502,0.29671,11111244224,-0.0012217305,-0.010995574,0.002443461,11111244224,56.648438
11111246800,-0.7082755,-9.777073,0.28235307,11111246800,-0.0012217305,-0.010995574,0.002443461,11111246800,56.648438
11111248772,-0.6843473,-9.762716,0.29671,11111248772,-0.004886922,-0.008552114,0.002443461,11111248772,56.648438
11111251052,-0.7082755,-9.777073,0.29671,11111251052,-0.0036651916,-0.010995574,0.002443461,11111251052,56.648438
11111253333,-0.6987042,-9.777073,0.29192436,11111253333,-0.0036651916,-0.012217305,0.002443461,11111253333,56.648438
11111255613,-0.6987042,-9.762716,0.2727818,11111255613,-0.0012217305,-0.012217305,0.0012217305,11111255613,56.664062
11111257904,-0.7082755,-9.781859,0.27756742,11111257904,0,-0.010995574,0.0012217305,11111257904,56.664062
11111260184,-0.6987042,-9.777073,0.28235307,11111260184,-0.002443461,-0.012217305,0.0012217305,11111260184,56.664062
11111262465,-0.7082755,-9.772287,0.3062813,11111262465,-0.002443461,-0.010995574,0.002443461,11111262465,56.664062
11111264745,-0.71306115,-9.772287,0.30149564,11111264745,-0.002443461,-0.009773844,0.0012217305,11111264745,56.664062
11111267049,-0.71306115,-9.777073,0.29192436,11111267049,0,-0.012217305,0.002443461,11111267049,56.664062
11111269329,-0.71306115,-9.762716,0.27756742,11111269329,0,-0.012217305,0,11111269329,56.664062
11111271609,-0.72263247,-9.767502,0.28235307,11111271609,0,-0.010995574,0.0012217305,11111271609,56.664062
11111273889,-0.7178468,-9.777073,0.30149564,11111273889,-0.0036651916,-0.010995574,0.002443461,11111273889,56.671875
11111276170,-0.72263247,-9.762716,0.3062813,11111276170,0,-0.012217305,0.0012217305,11111276170,56.671875
11111278440,-0.7178468,-9.767502,0.29192436,11111278440,0,-0.007330383,0.002443461,11111278440,56.671875
11111280720,-0.72741807,-9.767502,0.27756742,11111280720,-0.004886922,-0.010995574,0.0036651916,11111280720,56.671875
11111283000,-0.7082755,-9.762716,0.28235307,11111283000,-0.002443461,-0.010995574,0.002443461,11111283000,56.671875
11111285281,-0.7322037,-9.772287,0.28235307,11111285281,-0.002443461,-0.012217305,0.002443461,11111285281,56.671875
11111287570,-0.7178468,-9.781859,0.28235307,11111287570,0.0012217305,-0.013439035,0.002443461,11111287570,56.671875
11111289850,-0.72263247,-9.781859,0.27756742,11111289850,0.0012217305,-0.013439035,0.0036651916,11111289850,56.671875
11111292131,-0.71306115,-9.786645,0.27756742,11111292131,-0.0012217305,-0.012217305,0.0036651916,11111292131,56.6875
11111294411,-0.6987042,-9.786645,0.27756742,11111294411,0.002443461,-0.012217305,0.0036651916,11111294411,56.6875
11111296801,-0.72263247,-9.777073,0.2727818,11111296801,-0.002443461,-0.012217305,0.0036651916,11111296801,56.6875
11111298987,-0.72263247,-9.781859,0.3062813,11111298987,-0.002443461,-0.013439035,0.0012217305,11111298987,56.6875
11111301267,-0.70348984,-9.762716,0.28235307,11111301267,-0.002443461,-0.009773844,0.0012217305,11111301267,56.6875
11111303547,-0.6987042,-9.781859,0.28713873,11111303547,-0.002443461,-0.012217305,0.002443461,11111303547,56.6875
11111305828,-0.7178468,-9.777073,0.28235307,11111305828,-0.002443461,-0.012217305,0.002443461,11111305828,56.6875
11111308106,-0.7322037,-9.767502,0.28235307,11111308106,-0.0012217305,-0.013439035,0.002443461,11111308106,56.6875
11111310386,-0.7082755,-9.767502,0.3062813,11111310386,-0.004886922,-0.010995574,0.0036651916,11111310386,56.664062
11111312666,-0.72263247,-9.79143,0.29192436,11111312666,-0.004886922,-0.012217305,0.002443461,11111312666,56.664062
11111314947,-0.7178468,-9.772287,0.28713873,11111314947,-0.004886922,-0.010995574,0.002443461,11111314947,56.664062
11111317228,-0.7082755,-9.772287,0.2727818,11111317228,-0.0012217305,-0.010995574,0.0012217305,11111317228,56.664062
11111319508,-0.7178468,-9.772287,0.28235307,11111319508,-0.002443461,-0.010995574,0.0012217305,11111319508,56.664062
11111321789,-0.7082755,-9.762716,0.29671,11111321789,-0.002443461,-0.010995574,0.0012217305,11111321789,56.664062
11111324069,-0.7082755,-9.767502,0.2727818,11111324069,-0.002443461,-0.010995574,0.0012217305,11111324069,56.664062
11111326764,-0.7178468,-9.772287,0.28713873,11111326764,-0.002443461,-0.010995574,0.0036651916,11111326764,56.664062
11111328641,-0.71306115,-9.762716,0.26799613,11111328641,-0.0036651916,-0.009773844,0.002443461,11111328641,56.679688
11111330921,-0.71306115,-9.772287,0.2727818,11111330921,-0.0012217305,-0.009773844,0.002443461,11111330921,56.679688
11111333202,-0.7322037,-9.767502,0.28713873,11111333202,-0.0012217305,-0.013439035,0.002443461,11111333202,56.679688
11111335482,-0.72741807,-9.772287,0.29192436,11111335482,-0.0012217305,-0.010995574,0.0036651916,11111335482,56.679688
11111337764,-0.71306115,-9.757931,0.29671,11111337764,-0.0012217305,-0.013439035,0.002443461,11111337764,56.679688
11111340044,-0.72263247,-9.762716,0.29671,11111340044,-0.002443461,-0.010995574,0.0012217305,11111340044,56.679688
11111342324,-0.72741807,-9.772287,0.30149564,11111342324,-0.0036651916,-0.008552114,0.002443461,11111342324,56.679688
11111344604,-0.7082755,-9.767502,0.29671,11111344604,-0.002443461,-0.012217305,0.002443461,11111344604,56.679688
11111346907,-0.72263247,-9.762716,0.28235307,11111346907,0,-0.013439035,0.002443461,11111346907,56.65625
11111349187,-0.71306115,-9.772287,0.27756742,11111349187,-0.0012217305,-0.014660766,0,11111349187,56.65625
11111351468,-0.71306115,-9.781859,0.26799613,11111351468,-0.0036651916,-0.014660766,0.002443461,11111351468,56.65625
11111353748,-0.7082755,-9.772287,0.25842485,11111353748,-0.002443461,-0.013439035,0.0012217305,11111353748,56.65625
11111356028,-0.7322037,-9.772287,0.27756742,11111356028,-0.0036651916,-0.012217305,0.0036651916,11111356028,56.65625
11111358308,-0.6987042,-9.762716,0.2727818,11111358308,-0.002443461,-0.010995574,0.002443461,11111358308,56.65625
11111360588,-0.6987042,-9.762716,0.2727818,11111360588,-0.0036651916,-0.010995574,0.0036651916,11111360588,56.65625
11111362868,-0.70348984,-9.777073,0.28235307,11111362868,-0.0012217305,-0.009773844,0.002443461,11111362868,56.65625
11111365149,-0.71306115,-9.781859,0.3062813,11111365149,-0.0036651916,-0.009773844,0.0036651916,11111365149,56.6875
11111367424,-0.71306115,-9.757931,0.29671,11111367424,-0.0012217305,-0.013439035,0.002443461,11111367424,56.6875
11111369704,-0.71306115,-9.762716,0.27756742,11111369704,-0.0012217305,-0.015882496,0.0012217305,11111369704,56.6875
11111371985,-0.71306115,-9.786645,0.29192436,11111371985,-0.004886922,-0.013439035,0.002443461,11111371985,56.6875
11111374265,-0.72741807,-9.772287,0.28235307,11111374265,-0.0061086523,-0.012217305,0.002443461,11111374265,56.6875
11111376779,-0.72263247,-9.777073,0.2727818,11111376779,-0.002443461,-0.013439035,0.0012217305,11111376779,56.6875
11111378846,-0.6939186,-9.762716,0.2727818,11111378846,-0.0012217305,-0.010995574,0.002443461,11111378846,56.6875
11111381126,-0.7082755,-9.767502,0.28713873,11111381126,-0.0036651916,-0.012217305,0.0012217305,11111381126,56.6875
11111383407,-0.70348984,-9.772287,0.27756742,11111383407,-0.002443461,-0.013439035,0.0036651916,11111383407,56.671875
11111385687,-0.6987042,-9.772287,0.28235307,11111385687,-0.002443461,-0.012217305,0.002443461,11111385687,56.671875
11111387974,-0.6987042,-9.777073,0.27756742,11111387974,-0.0036651916,-0.009773844,0.002443461,11111387974,56.671875
11111390255,-0.7082755,-9.772287,0.2727818,11111390255,-0.0036651916,-0.012217305,0.002443461,11111390255,56.671875
11111392535,-0.7082755,-9.753145,0.27756742,11111392535,0,-0.013439035,0.0012217305,11111392535,56.671875
11111394815,-0.6987042,-9.772287,0.28235307,11111394815,-0.0012217305,-0.012217305,0.0036651916,11111394815,56.671875
11111397098,-0.72263247,-9.781859,0.28235307,11111397098,-0.002443461,-0.012217305,0.0036651916,11111397098,56.671875
11111399378,-0.72741807,-9.753145,0.28713873,11111399378,-0.0036651916,-0.014660766,0.0012217305,11111399378,56.671875
11111401659,-0.7082755,-9.79143,0.2727818,11111401659,-0.002443461,-0.013439035,0.0012217305,11111401659,56.695312
11111403939,-0.7082755,-9.753145,0.28713873,11111403939,0,-0.013439035,0.002443461,11111403939,56.695312
11111406219,-0.71306115,-9.772287,0.28713873,11111406219,-0.0036651916,-0.012217305,0.0036651916,11111406219,56.695312
11111408501,-0.7178468,-9.772287,0.27756742,11111408501,-0.0012217305,-0.013439035,0.0012217305,11111408501,56.695312
11111410781,-0.6987042,-9.777073,0.29192436,11111410781,-0.0036651916,-0.013439035,0.002443461,11111410781,56.695312
11111413062,-0.7082755,-9.777073,0.28235307,11111413062,-0.004886922,-0.014660766,0.0012217305,11111413062,56.695312
11111415342,-0.6939186,-9.762716,0.2727818,11111415342,-0.002443461,-0.014660766,0.0012217305,11111415342,56.695312
11111417618,-0.71306115,-9.767502,0.27756742,11111417618,-0.0061086523,-0.012217305,0.002443461,11111417618,56.695312
11111419898,-0.72741807,-9.772287,0.26799613,11111419898,-0.0036651916,-0.009773844,0.004886922,11111419898,56.6875
11111422178,-0.7178468,-9.772287,0.28713873,11111422178,-0.0012217305,-0.012217305,0.002443461,11111422178,56.6875
11111424458,-0.70348984,-9.781859,0.28713873,11111424458,-0.0036651916,-0.010995574,0.0012217305,11111424458,56.6875
11111426801,-0.71306115,-9.772287,0.3062813,11111426801,-0.004886922,-0.013439035,0.002443461,11111426801,56.6875
11111429034,-0.7178468,-9.772287,0.2727818,11111429034,-0.0036651916,-0.014660766,0.0012217305,11111429034,56.6875
11111431315,-0.7082755,-9.786645,0.2632105,11111431315,-0.002443461,-0.012217305,0.0036651916,11111431315,56.6875
11111433595,-0.70348984,-9.786645,0.26799613,11111433595,0,-0.013439035,0.0012217305,11111433595,56.6875
11111435875,-0.71306115,-9.762716,0.28713873,11111435875,-0.0036651916,-0.013439035,0.002443461,11111435875,56.6875
11111438156,-0.71306115,-9.777073,0.2727818,11111438156,-0.0036651916,-0.013439035,0.0012217305,11111438156,56.621094
11111440436,-0.71306115,-9.762716,0.2727818,11111440436,0.0012217305,-0.014660766,0.002443461,11111440436,56.621094
11111442717,-0.6987042,-9.757931,0.2727818,11111442717,-0.0036651916,-0.010995574,0.0012217305,11111442717,56.621094
11111444997,-0.70348984,-9.777073,0.26799613,11111444997,-0.002443461,-0.013439035,0.0012217305,11111444997,56.621094
11111447299,-0.7178468,-9.767502,0.28713873,11111447299,-0.0036651916,-0.012217305,0.0012217305,11111447299,56.621094
11111449580,-0.72263247,-9.767502,0.2727818,11111449580,-0.002443461,-0.012217305,0,11111449580,56.621094
11111451860,-0.7178468,-9.762716,0.2727818,11111451860,-0.0012217305,-0.012217305,0,11111451860,56.621094
11111454140,-0.7082755,-9.79143,0.2536392,11111454140,0,-0.012217305,0,11111454140,56.621094
11111456763,-0.7082755,-9.762716,0.25842485,11111456763,0.0012217305,-0.013439035,0.0012217305,11111456763,56.621094
11111458687,-0.70348984,-9.767502,0.2632105,11111458687,-0.002443461,-0.013439035,0.002443461,11111458687,56.621094
11111460968,-0.7178468,-9.767502,0.26799613,11111460968,-0.0036651916,-0.012217305,0,11111460968,56.621094
11111463248,-0.6939186,-9.762716,0.25842485,11111463248,-0.002443461,-0.013439035,0.002443461,11111463248,56.621094
11111465528,-0.70348984,-9.777073,0.28713873,11111465528,-0.0012217305,-0.009773844,0.002443461,11111465528,56.621094
11111467831,-0.70348984,-9.772287,0.2632105,11111467831,-0.0012217305,-0.009773844,0.0012217305,11111467831,56.621094
11111470111,-0.7082755,-9.762716,0.25842485,11111470111,-0.002443461,-0.010995574,0.002443461,11111470111,56.621094
11111472391,-0.72741807,-9.786645,0.2632105,11111472391,-0.0036651916,-0.012217305,0.002443461,11111472391,56.621094
11111474672,-0.7322037,-9.786645,0.25842485,11111474672,-0.0012217305,-0.010995574,0.002443461,11111474672,56.703125
11111476955,-0.70348984,-9.777073,0.28235307,11111476955,0,-0.010995574,0.002443461,11111476955,56.703125
11111479235,-0.7082755,-9.767502,0.25842485,11111479235,-0.0036651916,-0.013439035,0,11111479235,56.703125
11111481516,-0.72741807,-9.772287,0.2727818,11111481516,-0.0036651916,-0.012217305,0.002443461,11111481516,56.703125
11111483796,-0.7178468,-9.777073,0.2536392,11111483796,-0.0036651916,-0.012217305,0.0036651916,11111483796,56.703125
11111486076,-0.72741807,-9.762716,0.26799613,11111486076,-0.0036651916,-0.010995574,0.002443461,11111486076,56.703125
11111488369,-0.7178468,-9.772287,0.2440679,11111488369,0.002443461,-0.012217305,0.0012217305,11111488369,56.703125
11111490649,-0.7082755,-9.781859,0.23928227,11111490649,0,-0.013439035,0.0036651916,11111490649,56.703125
11111492930,-0.7082755,-9.772287,0.24885355,11111492930,-0.002443461,-0.010995574,0.0012217305,11111492930,56.679688
11111495210,-0.6891329,-9.762716,0.27756742,11111495210,-0.0012217305,-0.012217305,0.002443461,11111495210,56.679688
11111497489,-0.71306115,-9.772287,0.27756742,11111497489,-0.0036651916,-0.010995574,0.002443461,11111497489,56.679688
11111499770,-0.70348984,-9.757931,0.25842485,11111499770,-0.0012217305,-0.007330383,0.002443461,11111499770,56.679688
11111502050,-0.7082755,-9.781859,0.2727818,11111502050,-0.0012217305,-0.009773844,0.002443461,11111502050,56.679688
11111504330,-0.7178468,-9.781859,0.2536392,11111504330,-0.0036651916,-0.010995574,0.0012217305,11111504330,56.679688
11111506764,-0.7082755,-9.786645,0.24885355,11111506764,-0.0012217305,-0.012217305,0.0012217305,11111506764,56.679688
11111508902,-0.7178468,-9.781859,0.25842485,11111508902,0,-0.012217305,0.0012217305,11111508902,56.679688
11111511183,-0.70348984,-9.781859,0.26799613,11111511183,-0.0036651916,-0.012217305,0.0036651916,11111511183,56.65625
11111513463,-0.7082755,-9.772287,0.27756742,11111513463,-0.0012217305,-0.012217305,0.0036651916,11111513463,56.65625
11111515743,-0.71306115,-9.79143,0.26799613,11111515743,-0.0012217305,-0.010995574,0.0036651916,11111515743,56.65625
11111518024,-0.71306115,-9.767502,0.27756742,11111518024,-0.0012217305,-0.009773844,0.0012217305,11111518024,56.65625
11111520304,-0.70348984,-9.772287,0.26799613,11111520304,-0.0036651916,-0.009773844,0.0036651916,11111520304,56.65625
11111522584,-0.71306115,-9.772287,0.25842485,11111522584,-0.002443461,-0.012217305,0.002443461,11111522584,56.65625
11111524865,-0.7082755,-9.781859,0.2632105,11111524865,-0.0012217305,-0.012217305,0.0036651916,11111524865,56.65625
11111527145,-0.6987042,-9.777073,0.25842485,11111527145,-0.0036651916,-0.010995574,0.002443461,11111527145,56.65625
11111529425,-0.6939186,-9.772287,0.2536392,11111529425,-0.002443461,-0.012217305,0.0036651916,11111529425,56.679688
11111531705,-0.7082755,-9.772287,0.23928227,11111531705,0,-0.010995574,0.004886922,11111531705,56.679688
11111533985,-0.6987042,-9.767502,0.2536392,11111533985,0,-0.008552114,0.002443461,11111533985,56.679688
11111536266,-0.7082755,-9.772287,0.25842485,11111536266,-0.002443461,-0.008552114,0.002443461,11111536266,56.679688
11111538568,-0.70348984,-9.772287,0.2632105,11111538568,-0.002443461,-0.010995574,0.0012217305,11111538568,56.679688
11111540848,-0.70348984,-9.777073,0.2727818,11111540848,-0.0012217305,-0.010995574,0.0012217305,11111540848,56.679688
11111543129,-0.72263247,-9.777073,0.27756742,11111543129,-0.002443461,-0.012217305,0.002443461,11111543129,56.679688
11111545409,-0.7082755,-9.762716,0.27756742,11111545409,0.0012217305,-0.012217305,0.002443461,11111545409,56.679688
11111547689,-0.7082755,-9.762716,0.27756742,11111547689,0,-0.009773844,0.0012217305,11111547689,56.671875
11111549969,-0.7178468,-9.772287,0.27756742,11111549969,-0.0036651916,-0.008552114,0.0012217305,11111549969,56.671875
11111552249,-0.6891329,-9.757931,0.27756742,11111552249,-0.0036651916,-0.009773844,0.0012217305,11111552249,56.671875
11111554530,-0.71306115,-9.777073,0.2727818,11111554530,-0.004886922,-0.009773844,0,11111554530,56.671875
11111556822,-0.7322037,-9.781859,0.28713873,11111556822,-0.002443461,-0.010995574,0.0012217305,11111556822,56.671875
11111559103,-0.7082755,-9.772287,0.28235307,11111559103,-0.0012217305,-0.009773844,0.0036651916,11111559103,56.671875
11111561383,-0.70348984,-9.767502,0.26799613,11111561383,-0.002443461,-0.010995574,0.002443461,11111561383,56.671875
11111563663,-0.70348984,-9.767502,0.2632105,11111563663,-0.002443461,-0.010995574,0.002443461,11111563663,56.671875
11111565943,-0.72741807,-9.757931,0.25842485,11111565943,-0.0036651916,-0.010995574,0.002443461,11111565943,56.63672
11111568214,-0.71306115,-9.777073,0.26799613,11111568214,0,-0.009773844,0.0012217305,11111568214,56.63672
11111570494,-0.6987042,-9.777073,0.27756742,11111570494,-0.0012217305,-0.007330383,0.002443461,11111570494,56.63672
11111572774,-0.6939186,-9.777073,0.27756742,11111572774,-0.0036651916,-0.008552114,0.002443461,11111572774,56.63672
11111575055,-0.6987042,-9.772287,0.27756742,11111575055,-0.0061086523,-0.008552114,0.0012217305,11111575055,56.63672
11111577344,-0.70348984,-9.786645,0.2536392,11111577344,-0.0036651916,-0.009773844,0.0036651916,11111577344,56.63672
11111579624,-0.71306115,-9.777073,0.27756742,11111579624,0.0012217305,-0.010995574,0.0012217305,11111579624,56.63672
11111581904,-0.6939186,-9.767502,0.26799613,11111581904,0.0012217305,-0.009773844,0.0012217305,11111581904,56.63672
11111584184,-0.71306115,-9.777073,0.28235307,11111584184,-0.002443461,-0.010995574,0.0012217305,11111584184,56.6875
11111586800,-0.7178468,-9.772287,0.26799613,11111586800,-0.002443461,-0.009773844,0.0012217305,11111586800,56.6875
11111588748,-0.7178468,-9.762716,0.2727818,11111588748,0.0012217305,-0.010995574,0.002443461,11111588748,56.6875
11111591029,-0.70348984,-9.757931,0.2632105,11111591029,0,-0.007330383,0.0036651916,11111591029,56.6875
11111593309,-0.7082755,-9.772287,0.27756742,11111593309,-0.002443461,-0.012217305,0.002443461,11111593309,56.6875
11111595589,-0.6987042,-9.772287,0.26799613,11111595589,-0.0036651916,-0.010995574,0.0012217305,11111595589,56.6875
11111597871,-0.7082755,-9.767502,0.2727818,11111597871,-0.004886922,-0.009773844,0.002443461,11111597871,56.6875
11111600151,-0.70348984,-9.772287,0.26799613,11111600151,-0.002443461,-0.010995574,0.002443461,11111600151,56.6875
11111602432,-0.70348984,-9.753145,0.27756742,11111602432,0.0012217305,-0.010995574,0.0012217305,11111602432,56.703125
11111604712,-0.70348984,-9.781859,0.27756742,11111604712,-0.0012217305,-0.010995574,0,11111604712,56.703125
11111607013,-0.7082755,-9.753145,0.28713873,11111607013,-0.0036651916,-0.010995574,0.0036651916,11111607013,56.703125
11111609294,-0.6843473,-9.772287,0.27756742,11111609294,-0.0012217305,-0.009773844,0.0036651916,11111609294,56.703125
11111611574,-0.7178468,-9.772287,0.27756742,11111611574,0,-0.010995574,0.002443461,11111611574,56.703125
11111613854,-0.70348984,-9.772287,0.2727818,11111613854,0.0012217305,-0.010995574,0.002443461,11111613854,56.703125
11111616134,-0.6987042,-9.767502,0.28235307,11111616134,-0.0036651916,-0.010995574,0.0036651916,11111616134,56.703125
11111618420,-0.6939186,-9.781859,0.27756742,11111618420,-0.0036651916,-0.014660766,0.002443461,11111618420,56.703125
11111620701,-0.6795616,-9.762716,0.28235307,11111620701,-0.0012217305,-0.012217305,0.002443461,11111620701,56.671875
11111622981,-0.6939186,-9.777073,0.26799613,11111622981,-0.0036651916,-0.010995574,0.0012217305,11111622981,56.671875
11111625261,-0.6891329,-9.772287,0.26799613,11111625261,-0.0012217305,-0.010995574,0.002443461,11111625261,56.671875
11111627539,-0.71306115,-9.781859,0.2632105,11111627539,0,-0.010995574,0.0036651916,11111627539,56.671875
11111629819,-0.7082755,-9.777073,0.26799613,11111629819,-0.002443461,-0.010995574,0.0036651916,11111629819,56.671875
11111632099,-0.6939186,-9.762716,0.27756742,11111632099,-0.002443461,-0.010995574,0.002443461,11111632099,56.671875
11111634380,-0.71306115,-9.777073,0.2727818,11111634380,-0.0012217305,-0.009773844,0.0012217305,11111634380,56.671875
11111636764,-0.71306115,-9.772287,0.27756742,11111636764,-0.0036651916,-0.009773844,0.002443461,11111636764,56.671875
11111638950,-0.7082755,-9.762716,0.28235307,11111638950,-0.0012217305,-0.010995574,0.0012217305,11111638950,56.664062
11111641230,-0.7178468,-9.772287,0.27756742,11111641230,-0.0012217305,-0.010995574,0.0036651916,11111641230,56.664062
11111643510,-0.6987042,-9.777073,0.27756742,11111643510,0,-0.009773844,0.0012217305,11111643510,56.664062
11111645791,-0.7082755,-9.777073,0.28713873,11111645791,-0.0036651916,-0.009773844,0,11111645791,56.664062
11111648074,-0.7082755,-9.79143,0.28235307,11111648074,-0.0036651916,-0.010995574,0.0012217305,11111648074,56.664062
11111650355,-0.71306115,-9.781859,0.28235307,11111650355,-0.0036651916,-0.010995574,0.002443461,11111650355,56.664062
11111652635,-0.71306115,-9.762716,0.27756742,11111652635,-0.0036651916,-0.010995574,0.0012217305,11111652635,56.664062
11111654915,-0.6987042,-9.781859,0.28713873,11111654915,-0.0036651916,-0.009773844,0.002443461,11111654915,56.664062
11111657215,-0.6939186,-9.762716,0.28235307,11111657215,0.0012217305,-0.008552114,0.0036651916,11111657215,56.65625
11111659495,-0.7082755,-9.786645,0.27756742,11111659495,0,-0.009773844,0.002443461,11111659495,56.65625
11111661775,-0.71306115,-9.743574,0.29192436,11111661775,-0.002443461,-0.010995574,0.0036651916,11111661775,56.65625
11111664056,-0.7178468,-9.762716,0.27756742,11111664056,0,-0.009773844,0.0012217305,11111664056,56.65625
11111666800,-0.7178468,-9.757931,0.27756742,11111666800,0.0012217305,-0.010995574,0.002443461,11111666800,56.65625
11111668606,-0.7082755,-9.762716,0.28235307,11111668606,-0.002443461,-0.012217305,0.002443461,11111668606,56.65625
11111670886,-0.72263247,-9.772287,0.27756742,11111670886,-0.002443461,-0.010995574,0.0036651916,11111670886,56.65625
11111673166,-0.71306115,-9.767502,0.28713873,11111673166,-0.002443461,-0.010995574,0.002443461,11111673166,56.65625
11111675447,-0.6987042,-9.753145,0.2632105,11111675447,-0.002443461,-0.010995574,0.0036651916,11111675447,56.648438
11111677732,-0.6987042,-9.772287,0.29192436,11111677732,-0.004886922,-0.008552114,0.0012217305,11111677732,56.648438
11111680012,-0.71306115,-9.767502,0.28713873,11111680012,-0.002443461,-0.010995574,0.0012217305,11111680012,56.648438
11111682293,-0.71306115,-9.762716,0.26799613,11111682293,-0.002443461,-0.013439035,0,11111682293,56.648438
11111684573,-0.71306115,-9.777073,0.28713873,11111684573,-0.002443461,-0.010995574,0.002443461,11111684573,56.648438
11111686859,-0.6987042,-9.777073,0.2727818,11111686859,-0.002443461,-0.012217305,0.002443461,11111686859,56.648438
11111689139,-0.6987042,-9.777073,0.2727818,11111689139,-0.007330383,-0.008552114,0.0036651916,11111689139,56.648438
11111691419,-0.6987042,-9.767502,0.2536392,11111691419,0.0012217305,-0.009773844,0.002443461,11111691419,56.648438
11111693699,-0.7178468,-9.772287,0.2536392,11111693699,-0.0012217305,-0.008552114,0.002443461,11111693699,56.695312
11111695980,-0.6843473,-9.767502,0.26799613,11111695980,-0.0036651916,-0.010995574,0.0036651916,11111695980,56.695312
11111698265,-0.70348984,-9.762716,0.28235307,11111698265,0,-0.012217305,0.0012217305,11111698265,56.695312
11111700546,-0.7178468,-9.772287,0.28713873,11111700546,0.002443461,-0.010995574,0.0012217305,11111700546,56.695312
11111702826,-0.6891329,-9.777073,0.28713873,11111702826,-0.0012217305,-0.012217305,0.0036651916,11111702826,56.695312
11111705106,-0.71306115,-9.777073,0.27756742,11111705106,-0.002443461,-0.012217305,0.002443461,11111705106,56.695312
11111707405,-0.70348984,-9.762716,0.28235307,11111707405,-0.002443461,-0.008552114,0.002443461,11111707405,56.695312
11111709685,-0.70348984,-9.762716,0.29192436,11111709685,-0.002443461,-0.010995574,0.002443461,11111709685,56.695312
11111711965,-0.72741807,-9.762716,0.26799613,11111711965,-0.002443461,-0.012217305,0.0012217305,11111711965,56.628906
11111714246,-0.7178468,-9.772287,0.2727818,11111714246,0.002443461,-0.010995574,0.002443461,11111714246,56.628906
11111716798,-0.7082755,-9.767502,0.28713873,11111716798,0.0012217305,-0.009773844,0.002443461,11111716798,56.628906
11111718818,-0.71306115,-9.79143,0.27756742,11111718818,0,-0.007330383,0.0036651916,11111718818,56.628906
11111721098,-0.6939186,-9.757931,0.2727818,11111721098,-0.0012217305,-0.008552114,0.0036651916,11111721098,56.628906
11111723378,-0.70348984,-9.767502,0.31585258,11111723378,-0.002443461,-0.012217305,0.002443461,11111723378,56.628906
11111725658,-0.71306115,-9.762716,0.28713873,11111725658,-0.002443461,-0.010995574,0.0036651916,11111725658,56.628906
11111727943,-0.70348984,-9.772287,0.2727818,11111727943,-0.002443461,-0.012217305,0.002443461,11111727943,56.628906
11111730224,-0.70348984,-9.772287,0.28235307,11111730224,-0.002443461,-0.010995574,0.002443461,11111730224,56.6875
11111732504,-0.71306115,-9.781859,0.29192436,11111732504,-0.002443461,-0.010995574,0.0012217305,11111732504,56.6875
11111734784,-0.7082755,-9.777073,0.2727818,11111734784,-0.002443461,-0.008552114,0.0012217305,11111734784,56.6875
11111737063,-0.7082755,-9.762716,0.24885355,11111737063,-0.0012217305,-0.012217305,0.0036651916,11111737063,56.6875
11111739343,-0.70348984,-9.772287,0.28235307,11111739343,-0.0036651916,-0.010995574,0.002443461,11111739343,56.6875
11111741623,-0.71306115,-9.777073,0.28235307,11111741623,-0.0036651916,-0.010995574,0,11111741623,56.6875
11111743904,-0.70348984,-9.767502,0.28713873,11111743904,0,-0.012217305,0.002443461,11111743904,56.6875
11111746184,-0.7178468,-9.777073,0.2727818,11111746184,-0.002443461,-0.012217305,0.002443461,11111746184,56.6875
11111748466,-0.70348984,-9.772287,0.29192436,11111748466,-0.0012217305,-0.010995574,0.002443461,11111748466,56.671875
11111750746,-0.7082755,-9.772287,0.27756742,11111750746,0,-0.009773844,0.0036651916,11111750746,56.671875
11111753027,-0.70348984,-9.796216,0.27756742,11111753027,-0.0036651916,-0.009773844,0.0036651916,11111753027,56.671875
11111755307,-0.72263247,-9.781859,0.29192436,11111755307,-0.0012217305,-0.012217305,0.002443461,11111755307,56.671875
11111757589,-0.7082755,-9.777073,0.27756742,11111757589,-0.0012217305,-0.013439035,0.0036651916,11111757589,56.671875
11111759870,-0.72263247,-9.781859,0.28713873,11111759870,-0.0036651916,-0.010995574,0.002443461,11111759870,56.671875
11111762150,-0.7322037,-9.781859,0.28235307,11111762150,-0.0036651916,-0.012217305,0.002443461,11111762150,56.671875
11111764430,-0.71306115,-9.767502,0.29192436,11111764430,-0.002443461,-0.012217305,0.0036651916,11111764430,56.671875
11111766763,-0.7082755,-9.772287,0.29671,11111766763,-0.0036651916,-0.012217305,0.0012217305,11111766763,56.664062
11111768996,-0.6987042,-9.786645,0.27756742,11111768996,0,-0.010995574,0,11111768996,56.664062
11111771277,-0.6987042,-9.767502,0.29192436,11111771277,0,-0.013439035,0.0012217305,11111771277,56.664062
11111773557,-0.72263247,-9.767502,0.29192436,11111773557,-0.0012217305,-0.010995574,0.0012217305,11111773557,56.664062
11111775837,-0.7082755,-9.786645,0.28235307,11111775837,-0.002443461,-0.012217305,0.0036651916,11111775837,56.664062
11111778129,-0.71306115,-9.79143,0.27756742,11111778129,-0.002443461,-0.010995574,0.002443461,11111778129,56.664062
11111780409,-0.7178468,-9.781859,0.29192436,11111780409,-0.002443461,-0.012217305,0.0036651916,11111780409,56.664062
11111782689,-0.71306115,-9.767502,0.28235307,11111782689,-0.004886922,-0.010995574,0.002443461,11111782689,56.664062
11111784970,-0.71306115,-9.762716,0.29192436,11111784970,-0.0061086523,-0.012217305,0.0036651916,11111784970,56.695312
11111787251,-0.7082755,-9.762716,0.29671,11111787251,-0.0036651916,-0.012217305,0.002443461,11111787251,56.695312
11111789531,-0.7082755,-9.777073,0.30149564,11111789531,-0.004886922,-0.009773844,0.002443461,11111789531,56.695312
11111791811,-0.70348984,-9.767502,0.28235307,11111791811,-0.0036651916,-0.010995574,0.002443461,11111791811,56.695312
11111794092,-0.70348984,-9.781859,0.25842485,11111794092,-0.0012217305,-0.010995574,0.002443461,11111794092,56.695312
11111796768,-0.71306115,-9.781859,0.29192436,11111796768,-0.002443461,-0.009773844,0.002443461,11111796768,56.695312
11111798669,-0.6891329,-9.777073,0.26799613,11111798669,-0.002443461,-0.012217305,0.002443461,11111798669,56.695312
11111800949,-0.6891329,-9.767502,0.30149564,11111800949,-0.0036651916,-0.012217305,0.002443461,11111800949,56.695312
11111803229,-0.70348984,-9.777073,0.29671,11111803229,-0.004886922,-0.012217305,0.002443461,11111803229,56.671875
11111805510,-0.6987042,-9.777073,0.28713873,11111805510,-0.0036651916,-0.010995574,0.002443461,11111805510,56.671875
11111807789,-0.72263247,-9.777073,0.29671,11111807789,-0.004886922,-0.013439035,0.0012217305,11111807789,56.671875
11111810070,-0.71306115,-9.786645,0.29671,11111810070,-0.0036651916,-0.012217305,0.0012217305,11111810070,56.671875
11111812350,-0.7082755,-9.781859,0.28713873,11111812350,-0.004886922,-0.013439035,0.0036651916,11111812350,56.671875
11111814630,-0.72741807,-9.762716,0.28713873,11111814630,-0.002443461,-0.010995574,0.002443461,11111814630,56.671875
11111816930,-0.72263247,-9.777073,0.28713873,11111816930,-0.0012217305,-0.012217305,0.002443461,11111816930,56.671875
11111819210,-0.71306115,-9.781859,0.28713873,11111819210,-0.002443461,-0.012217305,0.002443461,11111819210,56.671875
11111821490,-0.6987042,-9.777073,0.2727818,11111821490,-0.0036651916,-0.014660766,0.0012217305,11111821490,56.703125
11111823771,-0.7082755,-9.772287,0.25842485,11111823771,-0.002443461,-0.012217305,0.002443461,11111823771,56.703125
11111826051,-0.6987042,-9.767502,0.26799613,11111826051,-0.002443461,-0.010995574,0.0012217305,11111826051,56.703125
11111828331,-0.7082755,-9.781859,0.29192436,11111828331,-0.004886922,-0.010995574,0.002443461,11111828331,56.703125
11111830611,-0.72741807,-9.772287,0.27756742,11111830611,-0.0036651916,-0.014660766,0.0012217305,11111830611,56.703125
11111832891,-0.7082755,-9.762716,0.29192436,11111832891,-0.002443461,-0.014660766,0.0036651916,11111832891,56.703125
11111835172,-0.7178468,-9.767502,0.27756742,11111835172,-0.0012217305,-0.013439035,0.002443461,11111835172,56.703125
11111837455,-0.6987042,-9.767502,0.29192436,11111837455,-0.0036651916,-0.013439035,0.0036651916,11111837455,56.703125
11111839736,-0.70348984,-9.767502,0.28235307,11111839736,0,-0.013439035,0.0036651916,11111839736,56.648438
11111842016,-0.7178468,-9.777073,0.29192436,11111842016,0,-0.012217305,0.0012217305,11111842016,56.648438
11111844296,-0.70348984,-9.777073,0.27756742,11111844296,-0.0012217305,-0.012217305,0.002443461,11111844296,56.648438
11111846801,-0.7178468,-9.757931,0.2727818,11111846801,-0.0012217305,-0.012217305,0.002443461,11111846801,56.648438
11111848868,-0.70348984,-9.757931,0.2632105,11111848868,-0.002443461,-0.013439035,0.002443461,11111848868,56.648438
11111851148,-0.70348984,-9.772287,0.28235307,11111851148,-0.002443461,-0.014660766,0.0012217305,11111851148,56.648438
11111853429,-0.71306115,-9.781859,0.2727818,11111853429,-0.0012217305,-0.012217305,0.0012217305,11111853429,56.648438
11111855709,-0.72263247,-9.767502,0.29192436,11111855709,-0.004886922,-0.012217305,0.002443461,11111855709,56.648438
11111857987,-0.70348984,-9.777073,0.29192436,11111857987,-0.0036651916,-0.014660766,0.002443461,11111857987,56.65625
11111860267,-0.7178468,-9.762716,0.29192436,11111860267,-0.002443461,-0.010995574,0.002443461,11111860267,56.65625
11111862547,-0.6987042,-9.762716,0.29192436,11111862547,-0.0061086523,-0.012217305,0.002443461,11111862547,56.65625
11111864828,-0.6939186,-9.767502,0.28713873,11111864828,-0.002443461,-0.014660766,0.0012217305,11111864828,56.65625
11111867114,-0.70348984,-9.762716,0.27756742,11111867114,-0.002443461,-0.010995574,0,11111867114,56.65625
11111869395,-0.71306115,-9.772287,0.27756742,11111869395,-0.0036651916,-0.010995574,0.0036651916,11111869395,56.65625
11111871675,-0.6939186,-9.772287,0.2632105,11111871675,-0.0012217305,-0.012217305,0.002443461,11111871675,56.65625
11111873955,-0.6987042,-9.772287,0.26799613,11111873955,-0.002443461,-0.013439035,0.0012217305,11111873955,56.65625
11111876235,-0.7082755,-9.767502,0.27756742,11111876235,-0.004886922,-0.013439035,0.002443461,11111876235,56.61328
11111878535,-0.6939186,-9.777073,0.2727818,11111878535,-0.0061086523,-0.012217305,0.0012217305,11111878535,56.61328
11111880815,-0.67477596,-9.762716,0.28235307,11111880815,-0.002443461,-0.013439035,0.002443461,11111880815,56.61328
11111883095,-0.6987042,-9.757931,0.2727818,11111883095,-0.0036651916,-0.012217305,0.0036651916,11111883095,56.61328
11111885376,-0.7082755,-9.767502,0.27756742,11111885376,-0.0012217305,-0.012217305,0.002443461,11111885376,56.61328
11111887667,-0.71306115,-9.757931,0.26799613,11111887667,-0.0012217305,-0.013439035,0.002443461,11111887667,56.61328
11111889947,-0.7082755,-9.762716,0.2536392,11111889947,-0.002443461,-0.012217305,0.0012217305,11111889947,56.61328
11111892228,-0.6987042,-9.767502,0.25842485,11111892228,-0.002443461,-0.013439035,0.0012217305,11111892228,56.61328
11111894508,-0.6939186,-9.762716,0.2727818,11111894508,-0.0012217305,-0.013439035,0.0012217305,11111894508,56.65625
11111896801,-0.6939186,-9.781859,0.2727818,11111896801,-0.002443461,-0.010995574,0.002443461,11111896801,56.65625
11111899058,-0.7082755,-9.753145,0.28235307,11111899058,-0.0012217305,-0.008552114,0.002443461,11111899058,56.65625
11111901338,-0.6843473,-9.767502,0.26799613,11111901338,0,-0.010995574,0.002443461,11111901338,56.65625
11111903619,-0.70348984,-9.772287,0.27756742,11111903619,-0.002443461,-0.012217305,0.0012217305,11111903619,56.65625
11111905899,-0.7082755,-9.772287,0.2536392,11111905899,-0.0012217305,-0.012217305,0.002443461,11111905899,56.65625
11111908179,-0.7082755,-9.781859,0.28235307,11111908179,-0.002443461,-0.012217305,0.002443461,11111908179,56.65625
11111910459,-0.70348984,-9.786645,0.28235307,11111910459,-0.002443461,-0.009773844,0.002443461,11111910459,56.65625
11111912739,-0.6987042,-9.762716,0.24885355,11111912739,-0.002443461,-0.010995574,0.002443461,11111912739,56.671875
11111915020,-0.70348984,-9.786645,0.2536392,11111915020,0,-0.012217305,0.002443461,11111915020,56.671875
11111917324,-0.7082755,-9.772287,0.2536392,11111917324,-0.0012217305,-0.012217305,0.0012217305,11111917324,56.671875
11111919604,-0.71306115,-9.772287,0.25842485,11111919604,-0.002443461,-0.012217305,0.002443461,11111919604,56.671875
11111921885,-0.70348984,-9.772287,0.2536392,11111921885,-0.002443461,-0.010995574,0.002443461,11111921885,56.671875
11111924165,-0.72263247,-9.753145,0.27756742,11111924165,-0.0036651916,-0.013439035,0.0012217305,11111924165,56.671875
11111926766,-0.70348984,-9.772287,0.2632105,11111926766,-0.004886922,-0.012217305,0.002443461,11111926766,56.671875
11111928714,-0.7082755,-9.762716,0.2727818,11111928714,-0.0036651916,-0.010995574,0.0036651916,11111928714,56.671875
11111930995,-0.6987042,-9.772287,0.2632105,11111930995,-0.002443461,-0.012217305,0.0036651916,11111930995,56.695312
11111933275,-0.72263247,-9.757931,0.2727818,11111933275,-0.002443461,-0.012217305,0.002443461,11111933275,56.695312
11111935555,-0.6843473,-9.786645,0.27756742,11111935555,-0.0012217305,-0.010995574,0.002443461,11111935555,56.695312
11111937857,-0.6987042,-9.762716,0.25842485,11111937857,-0.002443461,-0.012217305,0.002443461,11111937857,56.695312
11111940137,-0.6891329,-9.772287,0.2440679,11111940137,-0.002443461,-0.012217305,0.0012217305,11111940137,56.695312
11111942417,-0.6891329,-9.767502,0.2727818,11111942417,-0.0012217305,-0.010995574,0.0036651916,11111942417,56.695312
11111944697,-0.71306115,-9.772287,0.27756742,11111944697,-0.0012217305,-0.010995574,0.002443461,11111944697,56.695312
11111946978,-0.72741807,-9.777073,0.2727818,11111946978,0,-0.009773844,0,11111946978,56.695312
11111949259,-0.72741807,-9.767502,0.2632105,11111949259,-0.0036651916,-0.009773844,0.0036651916,11111949259,56.621094
11111951539,-0.7082755,-9.781859,0.28235307,11111951539,-0.0012217305,-0.009773844,0.0036651916,11111951539,56.621094
11111953819,-0.7178468,-9.777073,0.27756742,11111953819,-0.004886922,-0.009773844,0.002443461,11111953819,56.621094
11111956099,-0.70348984,-9.753145,0.24885355,11111956099,-0.0036651916,-0.012217305,0,11111956099,56.621094
11111958380,-0.7082755,-9.762716,0.2632105,11111958380,-0.0012217305,-0.010995574,0.002443461,11111958380,56.621094
11111960660,-0.71306115,-9.772287,0.2536392,11111960660,-0.004886922,-0.012217305,0.002443461,11111960660,56.621094
11111962941,-0.72263247,-9.772287,0.28235307,11111962941,-0.002443461,-0.010995574,0.002443461,11111962941,56.621094
11111965221,-0.7082755,-9.772287,0.2632105,11111965221,-0.002443461,-0.012217305,0.0036651916,11111965221,56.621094
11111967525,-0.72741807,-9.777073,0.2727818,11111967525,-0.0036651916,-0.013439035,0.002443461,11111967525,56.628906
11111969805,-0.70348984,-9.777073,0.27756742,11111969805,-0.0012217305,-0.010995574,0.0012217305,11111969805,56.628906
11111972085,-0.7082755,-9.767502,0.2727818,11111972085,-0.002443461,-0.012217305,0.0036651916,11111972085,56.628906
11111974365,-0.6987042,-9.777073,0.2632105,11111974365,-0.004886922,-0.010995574,0.002443461,11111974365,56.628906
11111976812,-0.70348984,-9.767502,0.25842485,11111976812,-0.004886922,-0.012217305,0.0036651916,11111976812,56.628906
11111978927,-0.6891329,-9.781859,0.2727818,11111978927,-0.0036651916,-0.010995574,0.0036651916,11111978927,56.628906
11111981207,-0.7178468,-9.786645,0.27756742,11111981207,-0.0012217305,-0.012217305,0.004886922,11111981207,56.628906
11111983487,-0.6939186,-9.781859,0.2727818,11111983487,-0.0036651916,-0.010995574,0.002443461,11111983487,56.628906
11111985767,-0.6939186,-9.772287,0.25842485,11111985767,-0.002443461,-0.010995574,0.002443461,11111985767,56.703125
11111988048,-0.7082755,-9.781859,0.2727818,11111988048,-0.0012217305,-0.013439035,0.002443461,11111988048,56.703125
11111990328,-0.7082755,-9.772287,0.25842485,11111990328,-0.002443461,-0.013439035,0.0012217305,11111990328,56.703125
11111992608,-0.7082755,-9.762716,0.28713873,11111992608,-0.002443461,-0.010995574,0.0012217305,11111992608,56.703125
11111994888,-0.6987042,-9.777073,0.2632105,11111994888,-0.0012217305,-0.012217305,0.0012217305,11111994888,56.703125
11111997168,-0.70348984,-9.777073,0.27756742,11111997168,-0.0012217305,-0.013439035,0.0012217305,11111997168,56.703125
11111999449,-0.7178468,-9.757931,0.28235307,11111999449,-0.0036651916,-0.013439035,0.0012217305,11111999449,56.703125
11112001729,-0.6987042,-9.762716,0.29192436,11112001729,0,-0.010995574,0.0036651916,11112001729,56.703125
11112004009,-0.71306115,-9.781859,0.25842485,11112004009,-0.002443461,-0.013439035,0.004886922,11112004009,56.648438
11112006802,-0.72263247,-9.772287,0.28235307,11112006802,-0.0012217305,-0.013439035,0.0036651916,11112006802,56.648438
11112008584,-0.7082755,-9.762716,0.27756742,11112008584,-0.0012217305,-0.010995574,0.0036651916,11112008584,56.648438
11112010864,-0.7178468,-9.786645,0.26799613,11112010864,-0.002443461,-0.010995574,0.0036651916,11112010864,56.648438
11112013145,-0.72263247,-9.777073,0.2727818,11112013145,-0.0012217305,-0.009773844,0.0036651916,11112013145,56.648438
11112015425,-0.7082755,-9.767502,0.28235307,11112015425,-0.0012217305,-0.010995574,0.002443461,11112015425,56.648438
11112017703,-0.6891329,-9.772287,0.2632105,11112017703,-0.0036651916,-0.012217305,0.0012217305,11112017703,56.648438
11112019983,-0.70348984,-9.767502,0.2632105,11112019983,-0.002443461,-0.010995574,0.002443461,11112019983,56.648438
11112022263,-0.7082755,-9.762716,0.26799613,11112022263,-0.002443461,-0.010995574,0.0036651916,11112022263,56.664062
11112024544,-0.72263247,-9.786645,0.2632105,11112024544,-0.002443461,-0.009773844,0.0036651916,11112024544,56.664062
11112026847,-0.71306115,-9.772287,0.26799613,11112026847,-0.002443461,-0.010995574,0.0012217305,11112026847,56.664062
11112029127,-0.7178468,-9.772287,0.27756742,11112029127,-0.002443461,-0.013439035,0,11112029127,56.664062
11112031408,-0.6939186,-9.79143,0.2727818,11112031408,-0.0012217305,-0.009773844,0.0036651916,11112031408,56.664062
11112033688,-0.70348984,-9.781859,0.27756742,11112033688,-0.002443461,-0.010995574,0.002443461,11112033688,56.664062
11112035968,-0.7082755,-9.781859,0.2632105,11112035968,-0.002443461,-0.010995574,0.0012217305,11112035968,56.664062
11112038249,-0.67477596,-9.781859,0.26799613,11112038249,-0.0036651916,-0.012217305,0.0036651916,11112038249,56.664062
11112040529,-0.6987042,-9.786645,0.27756742,11112040529,-0.002443461,-0.012217305,0.004886922,11112040529,56.703125
11112042810,-0.71306115,-9.772287,0.2632105,11112042810,-0.0012217305,-0.008552114,0.0036651916,11112042810,56.703125
11112045090,-0.7322037,-9.757931,0.25842485,11112045090,0.002443461,-0.012217305,0.0012217305,11112045090,56.703125
11112047372,-0.6939186,-9.743574,0.26799613,11112047372,-0.0012217305,-0.012217305,0.0012217305,11112047372,56.703125
11112049652,-0.71306115,-9.762716,0.25842485,11112049652,-0.0012217305,-0.010995574,0.0012217305,11112049652,56.703125
11112051932,-0.71306115,-9.762716,0.26799613,11112051932,-0.004886922,-0.012217305,0.0012217305,11112051932,56.703125
11112054212,-0.70348984,-9.734002,0.28235307,11112054212,-0.002443461,-0.013439035,0.0012217305,11112054212,56.703125
11112056762,-0.6795616,-9.757931,0.25842485,11112056762,-0.0012217305,-0.010995574,0.0012217305,11112056762,56.703125
11112058782,-0.70348984,-9.762716,0.2727818,11112058782,-0.004886922,-0.007330383,0.002443461,11112058782,56.6875
11112061062,-0.7082755,-9.767502,0.26799613,11112061062,-0.002443461,-0.010995574,0.004886922,11112061062,56.6875
11112063342,-0.70348984,-9.781859,0.2632105,11112063342,0,-0.010995574,0.0036651916,11112063342,56.6875
11112065622,-0.71306115,-9.767502,0.2632105,11112065622,0.002443461,-0.010995574,0.002443461,11112065622,56.6875
11112067904,-0.7082755,-9.762716,0.2632105,11112067904,-0.0036651916,-0.014660766,0.002443461,11112067904,56.6875
11112070184,-0.7322037,-9.762716,0.27756742,11112070184,-0.002443461,-0.012217305,0.002443461,11112070184,56.6875
11112072465,-0.6939186,-9.772287,0.2632105,11112072465,-0.0012217305,-0.012217305,0.0012217305,11112072465,56.6875
11112074745,-0.72263247,-9.767502,0.2632105,11112074745,0.0012217305,-0.010995574,0.0012217305,11112074745,56.6875
11112077035,-0.70348984,-9.762716,0.28235307,11112077035,-0.0012217305,-0.009773844,0.0036651916,11112077035,56.703125
11112079315,-0.6987042,-9.762716,0.28713873,11112079315,-0.0012217305,-0.009773844,0.0036651916,11112079315,56.703125
11112081595,-0.7082755,-9.762716,0.2727818,11112081595,-0.0012217305,-0.010995574,0.0012217305,11112081595,56.703125
11112083876,-0.7178468,-9.757931,0.25842485,11112083876,-0.0012217305,-0.012217305,0.0036651916,11112083876,56.703125
11112086156,-0.7082755,-9.762716,0.2536392,11112086156,-0.002443461,-0.009773844,0.0036651916,11112086156,56.703125
11112088451,-0.6891329,-9.781859,0.2632105,11112088451,-0.0012217305,-0.010995574,0.0036651916,11112088451,56.703125
11112090732,-0.71306115,-9.753145,0.2632105,11112090732,-0.0036651916,-0.008552114,0.002443461,11112090732,56.703125
11112093012,-0.71306115,-9.762716,0.26799613,11112093012,-0.0036651916,-0.009773844,0.002443461,11112093012,56.703125
11112095292,-0.7178468,-9.772287,0.27756742,11112095292,-0.002443461,-0.010995574,0.0036651916,11112095292,56.695312
11112097561,-0.70348984,-9.777073,0.2727818,11112097561,-0.004886922,-0.013439035,0.0012217305,11112097561,56.695312
11112099841,-0.6843473,-9.79143,0.2727818,11112099841,-0.002443461,-0.012217305,0.002443461,11112099841,56.695312
11112102121,-0.70348984,-9.767502,0.2632105,11112102121,-0.0012217305,-0.010995574,0.0012217305,11112102121,56.695312
11112104401,-0.7178468,-9.757931,0.2727818,11112104401,-0.0036651916,-0.012217305,0.002443461,11112104401,56.695312
11112106763,-0.70348984,-9.767502,0.28713873,11112106763,-0.002443461,-0.010995574,0.002443461,11112106763,56.695312
11112108973,-0.71306115,-9.767502,0.28235307,11112108973,-0.0036651916,-0.010995574,0.0012217305,11112108973,56.695312
11112111253,-0.72263247,-9.767502,0.27756742,11112111253,-0.0036651916,-0.007330383,0.0012217305,11112111253,56.695312
11112113533,-0.7082755,-9.781859,0.2727818,11112113533,-0.0012217305,-0.010995574,0.002443461,11112113533,56.664062
11112115813,-0.7178468,-9.796216,0.2727818,11112115813,-0.0036651916,-0.010995574,0,11112115813,56.664062
11112118100,-0.7322037,-9.777073,0.26799613,11112118100,-0.0061086523,-0.008552114,0.0012217305,11112118100,56.664062
11112120380,-0.72263247,-9.781859,0.26799613,11112120380,-0.002443461,-0.009773844,0.0036651916,11112120380,56.664062
11112122661,-0.7178468,-9.772287,0.28235307,11112122661,-0.002443461,-0.009773844,0.004886922,11112122661,56.664062
11112124941,-0.70348984,-9.781859,0.2727818,11112124941,0.0012217305,-0.008552114,0.0061086523,11112124941,56.664062
11112127241,-0.70348984,-9.772287,0.27756742,11112127241,-0.0012217305,-0.009773844,0.004886922,11112127241,56.664062
11112129521,-0.72263247,-9.772287,0.2727818,11112129521,-0.0012217305,-0.012217305,0.0012217305,11112129521,56.664062
11112131801,-0.7178468,-9.777073,0.28713873,11112131801,-0.0012217305,-0.010995574,0.0036651916,11112131801,56.6875
11112134081,-0.71306115,-9.738789,0.26799613,11112134081,-0.002443461,-0.010995574,0.0012217305,11112134081,56.6875
11112136798,-0.7082755,-9.777073,0.2727818,11112136798,-0.0012217305,-0.010995574,0.0012217305,11112136798,56.6875
11112138651,-0.7082755,-9.74836,0.2632105,11112138651,-0.0012217305,-0.009773844,0.0012217305,11112138651,56.6875
11112140932,-0.70348984,-9.777073,0.2727818,11112140932,-0.002443461,-0.009773844,0.0012217305,11112140932,56.6875
11112143212,-0.72263247,-9.772287,0.2632105,11112143212,-0.002443461,-0.010995574,0.0012217305,11112143212,56.6875
11112145492,-0.7178468,-9.757931,0.26799613,11112145492,-0.0012217305,-0.009773844,0.0012217305,11112145492,56.6875
11112147774,-0.72263247,-9.767502,0.28235307,11112147774,-0.0036651916,-0.009773844,0.0012217305,11112147774,56.6875
11112150054,-0.7178468,-9.781859,0.28235307,11112150054,-0.002443461,-0.010995574,0.0012217305,11112150054,56.679688
11112152335,-0.7178468,-9.767502,0.2727818,11112152335,0,-0.010995574,0.0036651916,11112152335,56.679688
11112154615,-0.7082755,-9.772287,0.27756742,11112154615,-0.0012217305,-0.010995574,0.002443461,11112154615,56.679688
11112156894,-0.6939186,-9.772287,0.27756742,11112156894,-0.002443461,-0.012217305,0.0012217305,11112156894,56.679688
11112159174,-0.6987042,-9.767502,0.29671,11112159174,-0.002443461,-0.013439035,0,11112159174,56.679688
11112161454,-0.70348984,-9.762716,0.28235307,11112161454,-0.0036651916,-0.009773844,0.002443461,11112161454,56.679688
11112163734,-0.71306115,-9.781859,0.3062813,11112163734,-0.0012217305,-0.010995574,0.0012217305,11112163734,56.679688
11112166015,-0.6987042,-9.772287,0.29192436,11112166015,-0.002443461,-0.010995574,0.0036651916,11112166015,56.679688
11112168299,-0.6987042,-9.767502,0.27756742,11112168299,-0.0036651916,-0.009773844,0.002443461,11112168299,56.6875
11112170579,-0.74177504,-9.762716,0.28235307,11112170579,-0.0061086523,-0.012217305,0.002443461,11112170579,56.6875
11112172859,-0.7178468,-9.777073,0.30149564,11112172859,-0.0012217305,-0.010995574,0.0012217305,11112172859,56.6875
11112175140,-0.72741807,-9.772287,0.2727818,11112175140,-0.002443461,-0.009773844,0.0012217305,11112175140,56.6875
11112177433,-0.7082755,-9.777073,0.28235307,11112177433,0.0012217305,-0.012217305,0.0012217305,11112177433,56.6875
11112179713,-0.72741807,-9.781859,0.29671,11112179713,-0.0012217305,-0.013439035,0.0012217305,11112179713,56.6875
11112181994,-0.72263247,-9.801002,0.29671,11112181994,-0.0012217305,-0.009773844,0.002443461,11112181994,56.6875
11112184274,-0.7082755,-9.781859,0.28713873,11112184274,0,-0.009773844,0.0036651916,11112184274,56.6875
11112186763,-0.6891329,-9.772287,0.28713873,11112186763,-0.0036651916,-0.010995574,0.002443461,11112186763,56.679688
11112188830,-0.7082755,-9.738789,0.29192436,11112188830,-0.0036651916,-0.012217305,0.0012217305,11112188830,56.679688
11112191110,-0.6939186,-9.781859,0.28713873,11112191110,0.0012217305,-0.013439035,0.0012217305,11112191110,56.679688
11112193391,-0.71306115,-9.767502,0.29192436,11112193391,-0.002443461,-0.013439035,0.0036651916,11112193391,56.679688
11112195671,-0.72741807,-9.772287,0.29192436,11112195671,-0.0012217305,-0.010995574,0.002443461,11112195671,56.679688
11112197977,-0.70348984,-9.786645,0.27756742,11112197977,0,-0.009773844,0.0012217305,11112197977,56.679688
11112200258,-0.6987042,-9.772287,0.27756742,11112200258,-0.002443461,-0.010995574,0.0012217305,11112200258,56.679688
11112202538,-0.7178468,-9.767502,0.26799613,11112202538,-0.004886922,-0.013439035,0.002443461,11112202538,56.679688
11112204818,-0.7178468,-9.781859,0.28713873,11112204818,-0.007330383,-0.010995574,0.0036651916,11112204818,56.679688
11112207085,-0.7178468,-9.786645,0.31106696,11112207085,-0.002443461,-0.012217305,0.002443461,11112207085,56.679688
11112209365,-0.7322037,-9.777073,0.27756742,11112209365,-0.002443461,-0.012217305,0,11112209365,56.679688
11112211645,-0.6987042,-9.781859,0.26799613,11112211645,0,-0.008552114,0.002443461,11112211645,56.679688
11112213925,-0.7082755,-9.786645,0.26799613,11112213925,0,-0.010995574,0.0012217305,11112213925,56.679688
11112216206,-0.70348984,-9.786645,0.28235307,11112216206,-0.0012217305,-0.010995574,0.002443461,11112216206,56.679688
11112218510,-0.70348984,-9.762716,0.29192436,11112218510,0,-0.012217305,0.0036651916,11112218510,56.679688
11112220791,-0.7082755,-9.767502,0.2727818,11112220791,-0.004886922,-0.013439035,0.002443461,11112220791,56.679688
11112223071,-0.70348984,-9.767502,0.28235307,11112223071,-0.004886922,-0.010995574,0.0012217305,11112223071,56.679688
11112225351,-0.7082755,-9.74836,0.2727818,11112225351,-0.002443461,-0.009773844,0.0012217305,11112225351,56.679688
11112227630,-0.7369894,-9.772287,0.29192436,11112227630,-0.0036651916,-0.008552114,0.0036651916,11112227630,56.679688
11112229910,-0.72741807,-9.753145,0.28235307,11112229910,-0.002443461,-0.007330383,0.002443461,11112229910,56.679688
11112232190,-0.7178468,-9.777073,0.29192436,11112232190,-0.0036651916,-0.010995574,0.002443461,11112232190,56.679688
11112234471,-0.7178468,-9.767502,0.2727818,11112234471,-0.0036651916,-0.010995574,0.0012217305,11112234471,56.679688
11112236763,-0.70348984,-9.767502,0.2727818,11112236763,0,-0.013439035,0.0036651916,11112236763,56.679688
11112239043,-0.7178468,-9.772287,0.27756742,11112239043,-0.0036651916,-0.012217305,0.0012217305,11112239043,56.679688
11112241323,-0.72263247,-9.781859,0.28235307,11112241323,-0.002443461,-0.010995574,0.0012217305,11112241323,56.679688
11112243603,-0.6987042,-9.786645,0.26799613,11112243603,0.0012217305,-0.010995574,0.0012217305,11112243603,56.679688
11112245884,-0.70348984,-9.772287,0.26799613,11112245884,-0.0036651916,-0.010995574,0,11112245884,56.679688
11112248166,-0.70348984,-9.786645,0.29192436,11112248166,-0.004886922,-0.008552114,0.0012217305,11112248166,56.679688
11112250447,-0.70348984,-9.786645,0.27756742,11112250447,-0.002443461,-0.010995574,0.002443461,11112250447,56.679688
11112252727,-0.7082755,-9.762716,0.28235307,11112252727,-0.0012217305,-0.012217305,0.002443461,11112252727,56.679688
11112255007,-0.7082755,-9.74836,0.29671,11112255007,-0.002443461,-0.013439035,0.0036651916,11112255007,56.679688
11112257288,-0.72263247,-9.772287,0.28713873,11112257288,-0.0012217305,-0.010995574,0.002443461,11112257288,56.679688
11112259568,-0.71306115,-9.772287,0.2727818,11112259568,-0.002443461,-0.012217305,0.0012217305,11112259568,56.671875
11112261849,-0.6987042,-9.772287,0.28713873,11112261849,-0.0036651916,-0.009773844,0.004886922,11112261849,56.671875
11112264129,-0.7178468,-9.781859,0.27756742,11112264129,-0.004886922,-0.014660766,0.0036651916,11112264129,56.671875
11112266798,-0.7082755,-9.781859,0.28713873,11112266798,-0.004886922,-0.013439035,0.002443461,11112266798,56.671875
11112268699,-0.70348984,-9.767502,0.26799613,11112268699,-0.004886922,-0.013439035,0.002443461,11112268699,56.671875
11112270979,-0.7082755,-9.777073,0.2632105,11112270979,-0.0036651916,-0.009773844,0.002443461,11112270979,56.671875
11112273259,-0.6939186,-9.777073,0.2727818,11112273259,-0.0036651916,-0.012217305,0,11112273259,56.671875
11112275540,-0.7178468,-9.772287,0.2632105,11112275540,-0.004886922,-0.012217305,0.002443461,11112275540,56.671875
11112277834,-0.7178468,-9.762716,0.28713873,11112277834,-0.002443461,-0.009773844,0.0012217305,11112277834,56.679688
11112280114,-0.6795616,-9.777073,0.27756742,11112280114,-0.004886922,-0.008552114,0.002443461,11112280114,56.679688
11112282394,-0.71306115,-9.772287,0.28713873,11112282394,-0.0036651916,-0.009773844,0.002443461,11112282394,56.679688
11112284674,-0.70348984,-9.781859,0.28713873,11112284674,-0.0036651916,-0.012217305,0.0036651916,11112284674,56.679688
11112286942,-0.70348984,-9.781859,0.2727818,11112286942,-0.0036651916,-0.010995574,0.002443461,11112286942,56.679688
11112289222,-0.72263247,-9.781859,0.2536392,11112289222,-0.002443461,-0.012217305,0.002443461,11112289222,56.679688
11112291503,-0.7082755,-9.772287,0.2727818,11112291503,-0.002443461,-0.012217305,0.004886922,11112291503,56.679688
11112293783,-0.7082755,-9.772287,0.26799613,11112293783,-0.0036651916,-0.013439035,0.0012217305,11112293783,56.679688
11112296063,-0.72263247,-9.762716,0.26799613,11112296063,-0.004886922,-0.012217305,0.0012217305,11112296063,56.664062
11112298361,-0.7178468,-9.767502,0.27756742,11112298361,-0.0061086523,-0.009773844,0.0036651916,11112298361,56.664062
11112300642,-0.7178468,-9.772287,0.27756742,11112300642,-0.0012217305,-0.012217305,0.002443461,11112300642,56.664062
11112302922,-0.7322037,-9.777073,0.28713873,11112302922,-0.0036651916,-0.012217305,0.002443461,11112302922,56.664062
11112305202,-0.7322037,-9.781859,0.28713873,11112305202,-0.0061086523,-0.012217305,0.004886922,11112305202,56.664062
11112307477,-0.7082755,-9.786645,0.26799613,11112307477,-0.007330383,-0.010995574,0.0036651916,11112307477,56.664062
11112309757,-0.6939186,-9.757931,0.27756742,11112309757,-0.0036651916,-0.010995574,0.002443461,11112309757,56.664062
11112312038,-0.6891329,-9.767502,0.2727818,11112312038,-0.0036651916,-0.009773844,0.0036651916,11112312038,56.664062
11112314318,-0.70348984,-9.781859,0.27756742,11112314318,-0.002443461,-0.010995574,0.0036651916,11112314318,56.679688
11112316798,-0.7082755,-9.757931,0.27756742,11112316798,-0.002443461,-0.012217305,0.0036651916,11112316798,56.679688
11112318889,-0.71306115,-9.772287,0.2727818,11112318889,-0.002443461,-0.012217305,0.0012217305,11112318889,56.679688
11112321169,-0.71306115,-9.79143,0.27756742,11112321169,-0.0012217305,-0.012217305,0.0012217305,11112321169,56.679688
11112323449,-0.70348984,-9.781859,0.2632105,11112323449,-0.0012217305,-0.013439035,0.002443461,11112323449,56.679688
11112325730,-0.70348984,-9.786645,0.27756742,11112325730,-0.0036651916,-0.009773844,0.002443461,11112325730,56.679688
11112328016,-0.70348984,-9.777073,0.27756742,11112328016,-0.002443461,-0.009773844,0.002443461,11112328016,56.679688
11112330296,-0.7082755,-9.786645,0.28235307,11112330296,-0.002443461,-0.007330383,0.0012217305,11112330296,56.679688
11112332576,-0.70348984,-9.79143,0.28235307,11112332576,-0.0012217305,-0.010995574,0.002443461,11112332576,56.679688
11112334856,-0.7082755,-9.796216,0.27756742,11112334856,0,-0.012217305,0.0036651916,11112334856,56.679688
11112337157,-0.70348984,-9.767502,0.27756742,11112337157,-0.0036651916,-0.010995574,0.0012217305,11112337157,56.679688
11112339437,-0.70348984,-9.781859,0.2727818,11112339437,-0.004886922,-0.009773844,0.0036651916,11112339437,56.679688
11112341717,-0.6843473,-9.777073,0.28235307,11112341717,-0.0036651916,-0.009773844,0.002443461,11112341717,56.679688
11112343998,-0.70348984,-9.767502,0.2727818,11112343998,-0.0036651916,-0.012217305,0.002443461,11112343998,56.679688
11112346278,-0.7178468,-9.786645,0.29671,11112346278,-0.0012217305,-0.012217305,0,11112346278,56.679688
11112348558,-0.6987042,-9.772287,0.28235307,11112348558,-0.0061086523,-0.012217305,0,11112348558,56.679688
11112350838,-0.72263247,-9.772287,0.27756742,11112350838,-0.002443461,-0.010995574,0.002443461,11112350838,56.664062
11112353119,-0.70348984,-9.767502,0.26799613,11112353119,-0.0036651916,-0.012217305,0.002443461,11112353119,56.664062
11112355399,-0.7178468,-9.777073,0.28713873,11112355399,-0.0012217305,-0.014660766,0.002443461,11112355399,56.664062
11112357679,-0.7178468,-9.777073,0.30149564,11112357679,0,-0.013439035,0.0012217305,11112357679,56.664062
11112359960,-0.6939186,-9.767502,0.28713873,11112359960,0,-0.013439035,0.0012217305,11112359960,56.664062
11112362240,-0.6939186,-9.772287,0.2727818,11112362240,-0.0036651916,-0.010995574,0.002443461,11112362240,56.664062
11112364520,-0.6891329,-9.767502,0.29671,11112364520,-0.0036651916,-0.012217305,0.002443461,11112364520,56.664062
11112366815,-0.72263247,-9.767502,0.27756742,11112366815,-0.0012217305,-0.012217305,0.0012217305,11112366815,56.664062
11112369095,-0.72263247,-9.781859,0.26799613,11112369095,-0.002443461,-0.013439035,0.0012217305,11112369095,56.664062
11112371376,-0.71306115,-9.777073,0.28235307,11112371376,-0.002443461,-0.010995574,0.002443461,11112371376,56.664062
11112373656,-0.6843473,-9.781859,0.2727818,11112373656,-0.004886922,-0.013439035,0.002443461,11112373656,56.664062
11112375936,-0.6939186,-9.762716,0.28713873,11112375936,-0.002443461,-0.012217305,0.002443461,11112375936,56.664062
11112378224,-0.7082755,-9.762716,0.27756742,11112378224,-0.0012217305,-0.013439035,0.004886922,11112378224,56.664062
11112380504,-0.7178468,-9.762716,0.28235307,11112380504,-0.0012217305,-0.012217305,0.0036651916,11112380504,56.664062
11112382784,-0.70348984,-9.781859,0.28235307,11112382784,-0.0036651916,-0.010995574,0.0012217305,11112382784,56.664062
11112385065,-0.70348984,-9.74836,0.2632105,11112385065,-0.0036651916,-0.010995574,0.002443461,11112385065,56.664062
11112386762,-0.71306115,-9.767502,0.28235307,11112386762,-0.002443461,-0.010995574,0.0036651916,11112386762,56.695312
11112388116,-0.71306115,-9.767502,0.26799613,11112388116,-0.0012217305,-0.012217305,0.004886922,11112388116,56.695312
11112396798,-0.6987042,-9.786645,0.27756742,11112396798,-0.004886922,-0.012217305,0.002443461,11112396798,56.695312
11112398746,-0.6891329,-9.772287,0.28235307,11112398746,-0.002443461,-0.012217305,0.002443461,11112398746,56.695312
11112401027,-0.71306115,-9.781859,0.26799613,11112401027,-0.0036651916,-0.012217305,0.002443461,11112401027,56.695312
11112403307,-0.71306115,-9.79143,0.28235307,11112403307,-0.0036651916,-0.008552114,0.0012217305,11112403307,56.695312
11112405587,-0.7178468,-9.786645,0.29671,11112405587,-0.004886922,-0.010995574,0.0012217305,11112405587,56.695312
11112407882,-0.7178468,-9.772287,0.2727818,11112407882,-0.004886922,-0.009773844,0.002443461,11112407882,56.695312
11112410163,-0.7082755,-9.762716,0.25842485,11112410163,-0.002443461,-0.009773844,0.0036651916,11112410163,56.695312
11112412443,-0.71306115,-9.767502,0.2727818,11112412443,-0.004886922,-0.013439035,0.0012217305,11112412443,56.695312
11112414723,-0.6987042,-9.757931,0.2536392,11112414723,-0.004886922,-0.012217305,0.0012217305,11112414723,56.695312
11112417001,-0.70348984,-9.777073,0.27756742,11112417001,-0.0012217305,-0.012217305,0.0012217305,11112417001,56.695312
11112419281,-0.7178468,-9.777073,0.28713873,11112419281,0,-0.010995574,0.0036651916,11112419281,56.695312
11112421562,-0.7178468,-9.777073,0.28235307,11112421562,-0.0012217305,-0.010995574,0.002443461,11112421562,56.695312
11112423842,-0.72741807,-9.777073,0.27756742,11112423842,-0.0036651916,-0.012217305,0.002443461,11112423842,56.628906
11112426122,-0.6891329,-9.777073,0.27756742,11112426122,-0.0036651916,-0.012217305,0,11112426122,56.628906
11112428404,-0.72741807,-9.781859,0.2632105,11112428404,-0.0012217305,-0.014660766,0.002443461,11112428404,56.628906
11112430684,-0.7178468,-9.772287,0.27756742,11112430684,-0.0012217305,-0.010995574,0.002443461,11112430684,56.628906
11112432965,-0.70348984,-9.762716,0.25842485,11112432965,-0.0036651916,-0.008552114,0.0036651916,11112432965,56.628906
11112435245,-0.71306115,-9.753145,0.2727818,11112435245,-0.0036651916,-0.012217305,0.002443461,11112435245,56.628906
11112437551,-0.72263247,-9.762716,0.27756742,11112437551,-0.0036651916,-0.012217305,0.002443461,11112437551,56.628906
11112439832,-0.6843473,-9.772287,0.2727818,11112439832,-0.0012217305,-0.013439035,0.0036651916,11112439832,56.628906
11112442112,-0.70348984,-9.762716,0.26799613,11112442112,-0.002443461,-0.012217305,0.002443461,11112442112,56.648438
11112444392,-0.7082755,-9.777073,0.2727818,11112444392,-0.0036651916,-0.012217305,0.002443461,11112444392,56.648438
11112446801,-0.71306115,-9.762716,0.2536392,11112446801,-0.004886922,-0.013439035,0.0012217305,11112446801,56.648438
11112448939,-0.7082755,-9.777073,0.28713873,11112448939,-0.0061086523,-0.010995574,0.0036651916,11112448939,56.648438
11112451220,-0.72741807,-9.772287,0.2536392,11112451220,-0.0036651916,-0.013439035,0.002443461,11112451220,56.648438
11112453500,-0.7178468,-9.767502,0.26799613,11112453500,-0.002443461,-0.013439035,0.0036651916,11112453500,56.648438
11112455780,-0.72263247,-9.786645,0.28235307,11112455780,-0.002443461,-0.012217305,0.002443461,11112455780,56.648438
11112458084,-0.7082755,-9.781859,0.27756742,11112458084,-0.0012217305,-0.013439035,0.002443461,11112458084,56.648438
11112460364,-0.7178468,-9.772287,0.2727818,11112460364,0.002443461,-0.014660766,0.0036651916,11112460364,56.671875
11112462644,-0.71306115,-9.781859,0.2632105,11112462644,0,-0.012217305,0.0012217305,11112462644,56.671875
11112464925,-0.7082755,-9.781859,0.2536392,11112464925,-0.002443461,-0.012217305,0.0012217305,11112464925,56.671875
11112467203,-0.6987042,-9.781859,0.28235307,11112467203,-0.004886922,-0.010995574,0,11112467203,56.671875
11112469484,-0.6939186,-9.777073,0.28713873,11112469484,-0.004886922,-0.012217305,0.0036651916,11112469484,56.671875
11112471764,-0.7082755,-9.767502,0.29192436,11112471764,0,-0.013439035,0.002443461,11112471764,56.671875
11112474044,-0.72741807,-9.777073,0.25842485,11112474044,-0.0012217305,-0.012217305,0.002443461,11112474044,56.671875
11112476775,-0.7082755,-9.762716,0.2727818,11112476775,-0.002443461,-0.013439035,0.002443461,11112476775,56.671875
11112478604,-0.6987042,-9.772287,0.2727818,11112478604,-0.004886922,-0.012217305,0.0012217305,11112478604,56.621094
11112480885,-0.70348984,-9.762716,0.2727818,11112480885,-0.002443461,-0.009773844,0.0012217305,11112480885,56.621094
11112483165,-0.70348984,-9.767502,0.27756742,11112483165,-0.0012217305,-0.010995574,0.002443461,11112483165,56.621094
11112485445,-0.7082755,-9.767502,0.2727818,11112485445,-0.0036651916,-0.009773844,0.0012217305,11112485445,56.621094
11112487740,-0.7082755,-9.753145,0.28713873,11112487740,-0.004886922,-0.009773844,0.0012217305,11112487740,56.621094
11112490020,-0.71306115,-9.757931,0.28713873,11112490020,-0.0012217305,-0.012217305,0.004886922,11112490020,56.621094
11112492300,-0.70348984,-9.762716,0.28713873,11112492300,0.0012217305,-0.010995574,0.002443461,11112492300,56.621094
11112494581,-0.72263247,-9.772287,0.2727818,11112494581,-0.002443461,-0.012217305,0.0036651916,11112494581,56.621094
11112496862,-0.72741807,-9.781859,0.27756742,11112496862,-0.0012217305,-0.010995574,0.002443461,11112496862,56.664062
11112499142,-0.70348984,-9.772287,0.26799613,11112499142,-0.0036651916,-0.013439035,0.004886922,11112499142,56.664062
11112501422,-0.7322037,-9.777073,0.26799613,11112501422,-0.004886922,-0.014660766,0.002443461,11112501422,56.664062
11112503702,-0.72263247,-9.777073,0.2632105,11112503702,-0.002443461,-0.012217305,0.002443461,11112503702,56.664062
11112505983,-0.72263247,-9.767502,0.28713873,11112505983,-0.0012217305,-0.012217305,0.002443461,11112505983,56.664062
11112508284,-0.7082755,-9.74836,0.26799613,11112508284,0,-0.012217305,0.002443461,11112508284,56.664062
11112510564,-0.70348984,-9.777073,0.2536392,11112510564,-0.0012217305,-0.012217305,0.0036651916,11112510564,56.664062
11112512845,-0.70348984,-9.762716,0.25842485,11112512845,-0.0012217305,-0.012217305,0,11112512845,56.664062
11112515125,-0.71306115,-9.781859,0.2536392,11112515125,0,-0.010995574,0.002443461,11112515125,56.65625
11112517394,-0.7082755,-9.753145,0.28713873,11112517394,0,-0.009773844,0.002443461,11112517394,56.65625
11112519675,-0.70348984,-9.762716,0.28713873,11112519675,0.0012217305,-0.012217305,0.0012217305,11112519675,56.65625
11112521955,-0.7178468,-9.762716,0.27756742,11112521955,0,-0.012217305,0.0012217305,11112521955,56.65625
11112524235,-0.70348984,-9.762716,0.28235307,11112524235,-0.002443461,-0.009773844,0.0012217305,11112524235,56.65625
11112526764,-0.70348984,-9.781859,0.2727818,11112526764,-0.0012217305,-0.010995574,0.002443461,11112526764,56.65625
11112528807,-0.70348984,-9.757931,0.2536392,11112528807,-0.0012217305,-0.010995574,0.0012217305,11112528807,56.65625
11112531088,-0.71306115,-9.777073,0.28235307,11112531088,-0.0012217305,-0.010995574,0.002443461,11112531088,56.65625
11112533368,-0.6891329,-9.781859,0.28235307,11112533368,-0.002443461,-0.010995574,0.0012217305,11112533368,56.664062
11112535648,-0.70348984,-9.757931,0.26799613,11112535648,0,-0.010995574,0.0012217305,11112535648,56.664062
11112537930,-0.7082755,-9.772287,0.2727818,11112537930,-0.002443461,-0.013439035,0.0012217305,11112537930,56.664062
11112540210,-0.7082755,-9.777073,0.28235307,11112540210,-0.0036651916,-0.012217305,0.004886922,11112540210,56.664062
11112542490,-0.72741807,-9.786645,0.2536392,11112542490,0,-0.010995574,0.0036651916,11112542490,56.664062
11112544771,-0.71306115,-9.767502,0.2632105,11112544771,0,-0.009773844,0.002443461,11112544771,56.664062
11112547072,-0.70348984,-9.772287,0.28235307,11112547072,-0.0012217305,-0.008552114,0.002443461,11112547072,56.664062
11112549353,-0.70348984,-9.767502,0.27756742,11112549353,-0.002443461,-0.009773844,0.002443461,11112549353,56.664062
11112551633,-0.7082755,-9.767502,0.28713873,11112551633,-0.002443461,-0.008552114,0.0012217305,11112551633,56.671875
11112553913,-0.7178468,-9.767502,0.27756742,11112553913,-0.002443461,-0.008552114,0.0012217305,11112553913,56.671875
11112556193,-0.72263247,-9.743574,0.2727818,11112556193,-0.0012217305,-0.010995574,0.0036651916,11112556193,56.671875
11112558475,-0.72741807,-9.762716,0.27756742,11112558475,-0.004886922,-0.010995574,0.002443461,11112558475,56.671875
11112560755,-0.7082755,-9.772287,0.28235307,11112560755,-0.004886922,-0.012217305,0.002443461,11112560755,56.671875
11112563036,-0.70348984,-9.767502,0.26799613,11112563036,-0.004886922,-0.010995574,0.0036651916,11112563036,56.671875
11112565316,-0.6987042,-9.757931,0.30149564,11112565316,-0.002443461,-0.010995574,0.002443461,11112565316,56.671875
11112567598,-0.7082755,-9.786645,0.28713873,11112567598,-0.002443461,-0.009773844,0.0012217305,11112567598,56.671875
11112569878,-0.70348984,-9.777073,0.29192436,11112569878,-0.002443461,-0.009773844,0.0036651916,11112569878,56.648438
11112572158,-0.71306115,-9.767502,0.28713873,11112572158,-0.0036651916,-0.009773844,0.004886922,11112572158,56.648438
11112574439,-0.70348984,-9.781859,0.26799613,11112574439,-0.004886922,-0.010995574,0.002443461,11112574439,56.648438
11112576813,-0.72263247,-9.786645,0.28235307,11112576813,-0.004886922,-0.010995574,0.0012217305,11112576813,56.648438
11112578999,-0.6987042,-9.772287,0.28713873,11112578999,-0.0061086523,-0.008552114,0.0012217305,11112578999,56.648438
11112581279,-0.70348984,-9.762716,0.28713873,11112581279,-0.002443461,-0.009773844,0.0036651916,11112581279,56.648438
11112583559,-0.7178468,-9.762716,0.26799613,11112583559,0,-0.010995574,0.002443461,11112583559,56.648438
11112585840,-0.6987042,-9.786645,0.28713873,11112585840,0,-0.012217305,0.004886922,11112585840,56.648438
11112588131,-0.70348984,-9.777073,0.28235307,11112588131,0,-0.012217305,0.0036651916,11112588131,56.65625
11112590412,-0.6891329,-9.757931,0.30149564,11112590412,-0.0012217305,-0.010995574,0,11112590412,56.65625
11112592692,-0.6987042,-9.781859,0.28235307,11112592692,-0.0012217305,-0.010995574,0.0036651916,11112592692,56.65625
11112594972,-0.70348984,-9.772287,0.28713873,11112594972,0,-0.008552114,0.0012217305,11112594972,56.65625
11112597253,-0.70348984,-9.781859,0.2727818,11112597253,-0.0012217305,-0.008552114,0.0012217305,11112597253,56.65625
11112599533,-0.7082755,-9.767502,0.27756742,11112599533,-0.002443461,-0.009773844,0.002443461,11112599533,56.65625
11112601813,-0.7082755,-9.786645,0.28713873,11112601813,-0.0036651916,-0.009773844,0.0036651916,11112601813,56.65625
11112604094,-0.7178468,-9.772287,0.2727818,11112604094,-0.0036651916,-0.010995574,0.002443461,11112604094,56.65625
11112606765,-0.71306115,-9.79143,0.29192436,11112606765,-0.002443461,-0.010995574,0.002443461,11112606765,56.648438
11112608666,-0.7082755,-9.767502,0.2632105,11112608666,-0.0012217305,-0.012217305,0.0012217305,11112608666,56.648438
11112610946,-0.7322037,-9.757931,0.28713873,11112610946,-0.002443461,-0.010995574,0,11112610946,56.648438
11112613226,-0.7178468,-9.757931,0.27756742,11112613226,-0.004886922,-0.012217305,0.002443461,11112613226,56.648438
11112615507,-0.6987042,-9.757931,0.26799613,11112615507,-0.0036651916,-0.010995574,0.002443461,11112615507,56.648438
11112617790,-0.7082755,-9.757931,0.2727818,11112617790,-0.0012217305,-0.012217305,0.002443461,11112617790,56.648438
11112620071,-0.71306115,-9.767502,0.28235307,11112620071,-0.0012217305,-0.013439035,0.0012217305,11112620071,56.648438
11112622351,-0.70348984,-9.781859,0.28235307,11112622351,0,-0.012217305,0.0036651916,11112622351,56.648438
11112624631,-0.71306115,-9.762716,0.27756742,11112624631,-0.002443461,-0.010995574,0.0012217305,11112624631,56.695312
11112626922,-0.6795616,-9.767502,0.2727818,11112626922,-0.0036651916,-0.008552114,0.002443461,11112626922,56.695312
11112629203,-0.70348984,-9.767502,0.2727818,11112629203,-0.0061086523,-0.009773844,0.0036651916,11112629203,56.695312
11112631483,-0.7082755,-9.777073,0.28235307,11112631483,-0.002443461,-0.010995574,0.002443461,11112631483,56.695312
11112633763,-0.70348984,-9.772287,0.2727818,11112633763,-0.002443461,-0.010995574,0.0012217305,11112633763,56.695312
11112636043,-0.7082755,-9.767502,0.26799613,11112636043,-0.0036651916,-0.012217305,0.002443461,11112636043,56.695312
11112638320,-0.71306115,-9.767502,0.2727818,11112638320,-0.002443461,-0.010995574,0.004886922,11112638320,56.695312
11112640601,-0.71306115,-9.781859,0.2727818,11112640601,0,-0.008552114,0.002443461,11112640601,56.695312
11112642881,-0.71306115,-9.772287,0.28713873,11112642881,-0.0012217305,-0.009773844,0.0036651916,11112642881,56.6875
11112645161,-0.70348984,-9.781859,0.28235307,11112645161,0.002443461,-0.009773844,0.002443461,11112645161,56.6875
11112647466,-0.71306115,-9.767502,0.2727818,11112647466,-0.002443461,-0.012217305,0.002443461,11112647466,56.6875
11112649746,-0.71306115,-9.786645,0.28235307,11112649746,-0.002443461,-0.012217305,0.0012217305,11112649746,56.6875
11112652026,-0.7082755,-9.767502,0.2632105,11112652026,-0.0012217305,-0.012217305,0.0012217305,11112652026,56.6875
11112654306,-0.6987042,-9.767502,0.25842485,11112654306,-0.0036651916,-0.009773844,0.0012217305,11112654306,56.6875
11112656763,-0.7178468,-9.777073,0.26799613,11112656763,-0.002443461,-0.012217305,0.0012217305,11112656763,56.6875
11112658878,-0.7082755,-9.767502,0.2632105,11112658878,-0.0036651916,-0.009773844,0.002443461,11112658878,56.6875
11112661158,-0.72263247,-9.786645,0.28235307,11112661158,-0.0012217305,-0.012217305,0.002443461,11112661158,56.71875
11112663438,-0.71306115,-9.762716,0.2632105,11112663438,-0.0012217305,-0.013439035,0.0036651916,11112663438,56.71875
11112665718,-0.6987042,-9.786645,0.29192436,11112665718,-0.002443461,-0.012217305,0.0036651916,11112665718,56.71875
11112668000,-0.6891329,-9.781859,0.28235307,11112668000,-0.0012217305,-0.010995574,0.0036651916,11112668000,56.71875
11112670280,-0.7082755,-9.772287,0.27756742,11112670280,0.0012217305,-0.007330383,0.002443461,11112670280,56.71875
11112672561,-0.72741807,-9.777073,0.28713873,11112672561,-0.002443461,-0.009773844,0.002443461,11112672561,56.71875
11112674841,-0.7082755,-9.762716,0.26799613,11112674841,-0.0036651916,-0.012217305,0.0012217305,11112674841,56.71875
11112677112,-0.7082755,-9.772287,0.2632105,11112677112,-0.004886922,-0.009773844,0.0036651916,11112677112,56.71875
11112679392,-0.7178468,-9.767502,0.27756742,11112679392,-0.002443461,-0.007330383,0.002443461,11112679392,56.6875
11112681673,-0.7178468,-9.772287,0.25842485,11112681673,-0.0012217305,-0.013439035,0.002443461,11112681673,56.6875
11112683953,-0.72741807,-9.772287,0.2632105,11112683953,-0.0036651916,-0.013439035,0.0012217305,11112683953,56.6875
11112686233,-0.7178468,-9.767502,0.2632105,11112686233,-0.002443461,-0.012217305,0.002443461,11112686233,56.6875
11112688524,-0.70348984,-9.772287,0.2632105,11112688524,-0.0036651916,-0.009773844,0.002443461,11112688524,56.6875
11112690804,-0.71306115,-9.781859,0.2727818,11112690804,-0.002443461,-0.010995574,0.004886922,11112690804,56.6875
11112693084,-0.7178468,-9.79143,0.28713873,11112693084,0,-0.010995574,0.002443461,11112693084,56.6875
11112695365,-0.72263247,-9.777073,0.3062813,11112695365,-0.004886922,-0.014660766,0.002443461,11112695365,56.6875
11112697645,-0.6795616,-9.786645,0.2727818,11112697645,-0.0036651916,-0.012217305,0.0012217305,11112697645,56.6875
11112699926,-0.6987042,-9.767502,0.2727818,11112699926,-0.004886922,-0.013439035,0.0012217305,11112699926,56.6875
