accelerationTimestamp,accelerationX,accelerationY,accelerationZ,angularSpeedTimestamp,angularSpeedX,angularSpeedY,angularSpeedZ,temperatureTimestamp,temperature
11110312868,-0.9296116,-10.04507,0.16151553,11110312868,0.0036651916,-0.004276057,0.0012217305,11110312868,55.01172
11110321949,-0.94636136,-10.033105,0.1794617,11110321949,0.005497787,-0.0036651916,0.0012217305,11110321949,55.01172
11110331036,-0.9391829,-10.051051,0.16390835,11110331036,0.004276057,-0.0036651916,0.0012217305,11110331036,55.04297
11110340118,-0.95712906,-10.04507,0.1698904,11110340118,0.004886922,-0.0036651916,0.00061086525,11110340118,55.04297
11110349199,-0.95473623,-10.042677,0.16510476,11110349199,0.004276057,-0.004276057,0.0012217305,11110349199,55.07422
11110358292,-0.94277215,-10.043873,0.16151553,11110358292,0.004276057,-0.004886922,0.00061086525,11110358292,55.07422
11110367387,-0.9559326,-10.042677,0.16510476,11110367387,0.004276057,-0.005497787,0.00061086525,11110367387,55.08203
11110376469,-0.9523434,-10.04507,0.16271193,11110376469,0.004886922,-0.005497787,0.002443461,11110376469,55.08203
11110385547,-0.94277215,-10.043873,0.17587246,11110385547,0.005497787,-0.004886922,0.0012217305,11110385547,55.01953
11110394630,-0.94396853,-10.042677,0.15792629,11110394630,0.004276057,-0.005497787,0.0012217305,11110394630,55.01953
11110403712,-0.9487542,-10.048658,0.16151553,11110403712,0.004276057,-0.0061086523,0.00061086525,11110403712,55.035156
11110412815,-0.9559326,-10.042677,0.16151553,11110412815,0.004276057,-0.0061086523,0.0012217305,11110412815,55.035156
11110421893,-0.94755775,-10.042677,0.15672988,11110421893,0.004276057,-0.005497787,0.0018325958,11110421893,55.01953
11110430984,-0.951147,-10.039087,0.15553348,11110430984,0.004276057,-0.005497787,0.0018325958,11110430984,55.01953
11110440046,-0.94277215,-10.047462,0.16151553,11110440046,0.004276057,-0.0061086523,0.002443461,11110440046,55.04297
11110449153,-0.9523434,-10.040284,0.16031912,11110449153,0.004276057,-0.005497787,0.0018325958,11110449153,55.04297
11110458229,-0.9607183,-10.047462,0.15792629,11110458229,0.004276057,-0.005497787,0.002443461,11110458229,55.003906
11110467301,-0.951147,-10.04507,0.14596218,11110467301,0.004886922,-0.0067195175,0.0012217305,11110467301,55.003906
11110476383,-0.94396853,-10.040284,0.15553348,11110476383,0.004886922,-0.0061086523,0.00061086525,11110476383,55.05078
11110485492,-0.94755775,-10.036695,0.15553348,11110485492,0.004886922,-0.004886922,0.0018325958,11110485492,55.05078
11110494557,-0.94755775,-10.039087,0.14596218,11110494557,0.004886922,-0.004886922,0.0012217305,11110494557,54.992188
11110503658,-0.93679005,-10.048658,0.14596218,11110503658,0.004276057,-0.0036651916,0.0018325958,11110503658,54.992188
11110512741,-0.95353985,-10.052248,0.15792629,11110512741,0.004276057,-0.004276057,0.0012217305,11110512741,55.003906
11110521816,-0.9415757,-10.04507,0.16031912,11110521816,0.0036651916,-0.004886922,0.00061086525,11110521816,55.003906
11110530898,-0.95353985,-10.04507,0.1591227,11110530898,0.004276057,-0.004276057,0.00061086525,11110530898,55.0625
11110539994,-0.9451649,-10.052248,0.14237295,11110539994,0.0036651916,-0.004276057,0.00061086525,11110539994,55.0625
11110549082,-0.94277215,-10.047462,0.13998012,11110549082,0.004276057,-0.004276057,0.00061086525,11110549082,55.08203
11110558156,-0.95353985,-10.042677,0.15672988,11110558156,0.004276057,-0.0036651916,0.0012217305,11110558156,55.08203
11110567247,-0.94396853,-10.046266,0.15194423,11110567247,0.004276057,-0.0036651916,0.0012217305,11110567247,55.035156
11110576330,-0.95353985,-10.048658,0.15074782,11110576330,0.004886922,-0.004276057,0.00061086525,11110576330,55.035156
11110585415,-0.9487542,-10.042677,0.14596218,11110585415,0.004886922,-0.004886922,0.0012217305,11110585415,55.05078
11110594487,-0.9379865,-10.036695,0.15314065,11110594487,0.004276057,-0.004276057,0.0012217305,11110594487,55.05078
11110603590,-0.94755775,-10.039087,0.15553348,11110603590,0.004886922,-0.004276057,0.0018325958,11110603590,55.035156
11110612679,-0.951147,-10.040284,0.14596218,11110612679,0.004886922,-0.004276057,0.002443461,11110612679,55.035156
11110621751,-0.9415757,-10.046266,0.15314065,11110621751,0.004276057,-0.005497787,0.0018325958,11110621751,55.01172
11110630840,-0.94277215,-10.052248,0.14955142,11110630840,0.004886922,-0.0036651916,0.0012217305,11110630840,55.01172
11110639929,-0.95832545,-10.04507,0.15074782,11110639929,0.004886922,-0.004276057,0.0018325958,11110639929,55.035156
11110648988,-0.9451649,-10.04507,0.14356937,11110648988,0.0036651916,-0.004886922,0.0012217305,11110648988,55.035156
11110658084,-0.94755775,-10.051051,0.14476576,11110658084,0.004276057,-0.0030543262,0.0018325958,11110658084,55.066406
11110667187,-0.9487542,-10.049855,0.15194423,11110667187,0.004886922,-0.0036651916,0.002443461,11110667187,55.066406
11110676269,-0.93559366,-10.043873,0.16031912,11110676269,0.004276057,-0.005497787,0.0012217305,11110676269,55.07422
11110685340,-0.94755775,-10.051051,0.14596218,11110685340,0.0036651916,-0.004886922,0.0012217305,11110685340,55.07422
11110694440,-0.9487542,-10.049855,0.15074782,11110694440,0.005497787,-0.005497787,0.00061086525,11110694440,55.04297
11110703520,-0.93559366,-10.047462,0.13399807,11110703520,0.004276057,-0.0036651916,0.0018325958,11110703520,55.04297
11110712589,-0.951147,-10.040284,0.16151553,11110712589,0.004886922,-0.0030543262,0.0012217305,11110712589,55.066406
11110721680,-0.951147,-10.042677,0.15792629,11110721680,0.004886922,-0.0036651916,0.0012217305,11110721680,55.066406
11110730761,-0.94755775,-10.046266,0.15672988,11110730761,0.004276057,-0.0030543262,0.0018325958,11110730761,55.01953
11110739854,-0.9523434,-10.048658,0.15792629,11110739854,0.005497787,-0.004276057,0.0018325958,11110739854,55.01953
11110748951,-0.9607183,-10.042677,0.15553348,11110748951,0.004276057,-0.004276057,0.0012217305,11110748951,55.027344
11110758015,-0.94755775,-10.054641,0.1698904,11110758015,0.004886922,-0.0036651916,0.0012217305,11110758015,55.027344
11110767166,-0.94277215,-10.051051,0.16390835,11110767166,0.004886922,-0.004276057,0.0012217305,11110767166,55.058594
11110776178,-0.9487542,-10.046266,0.16510476,11110776178,0.0036651916,-0.0036651916,0.0018325958,11110776178,55.058594
11110785268,-0.9499506,-10.04148,0.16630118,11110785268,0.004276057,-0.0036651916,0.002443461,11110785268,55.003906
11110794358,-0.9523434,-10.046266,0.1591227,11110794358,0.004276057,-0.0036651916,0.0018325958,11110794358,55.003906
11110803449,-0.95473623,-10.040284,0.16390835,11110803449,0.004886922,-0.0036651916,0.002443461,11110803449,55.027344
11110812523,-0.93679005,-10.04148,0.16271193,11110812523,0.004276057,-0.0036651916,0.0012217305,11110812523,55.027344
11110821620,-0.9451649,-10.037891,0.16510476,11110821620,0.004886922,-0.004276057,0.002443461,11110821620,55.04297
11110830703,-0.9415757,-10.043873,0.16151553,11110830703,0.004276057,-0.004276057,0.0018325958,11110830703,55.04297
11110839783,-0.94636136,-10.047462,0.16151553,11110839783,0.004276057,-0.004886922,0.0012217305,11110839783,55.027344
11110848868,-0.94755775,-10.047462,0.17347965,11110848868,0.004886922,-0.005497787,0.002443461,11110848868,55.027344
11110857947,-0.94755775,-10.037891,0.16031912,11110857947,0.004276057,-0.004886922,0.0012217305,11110857947,55.003906
11110867029,-0.9451649,-10.036695,0.1591227,11110867029,0.0036651916,-0.004886922,0.0018325958,11110867029,55.003906
11110876120,-0.9487542,-10.042677,0.15792629,11110876120,0.004276057,-0.004886922,0.0018325958,11110876120,55.05078
11110885209,-0.95473623,-10.048658,0.15194423,11110885209,0.0036651916,-0.004276057,0.0018325958,11110885209,55.05078
11110894297,-0.9523434,-10.057034,0.15194423,11110894297,0.0036651916,-0.004886922,0.0018325958,11110894297,55.027344
11110903387,-0.95473623,-10.048658,0.15553348,11110903387,0.0036651916,-0.0061086523,0.0012217305,11110903387,55.027344
11110912474,-0.95473623,-10.051051,0.15314065,11110912474,0.004276057,-0.0036651916,0.0018325958,11110912474,55.04297
11110921549,-0.951147,-10.040284,0.15553348,11110921549,0.004886922,-0.004886922,0.002443461,11110921549,55.04297
11110930632,-0.94755775,-10.042677,0.16151553,11110930632,0.004276057,-0.004276057,0.0018325958,11110930632,55.035156
11110939726,-0.951147,-10.040284,0.16151553,11110939726,0.004886922,-0.004886922,0.002443461,11110939726,55.035156
11110948810,-0.951147,-10.048658,0.16869399,11110948810,0.0036651916,-0.004276057,0.0012217305,11110948810,55.035156
11110957889,-0.9499506,-10.048658,0.16869399,11110957889,0.004276057,-0.004886922,0.0012217305,11110957889,55.035156
11110966971,-0.95353985,-10.048658,0.16390835,11110966971,0.004276057,-0.004886922,0.0018325958,11110966971,55.027344
11110976055,-0.9559326,-10.043873,0.16031912,11110976055,0.0036651916,-0.005497787,0.002443461,11110976055,55.027344
11110985144,-0.9523434,-10.037891,0.16749759,11110985144,0.0036651916,-0.004886922,0.0012217305,11110985144,54.992188
11110994228,-0.9499506,-10.048658,0.15074782,11110994228,0.0030543262,-0.005497787,0.0012217305,11110994228,54.992188
11111003304,-0.9523434,-10.042677,0.15433706,11111003304,0.004886922,-0.0061086523,0.0018325958,11111003304,55.046875
11111012393,-0.94636136,-10.047462,0.15194423,11111012393,0.004886922,-0.0061086523,0.0018325958,11111012393,55.046875
11111021472,-0.9499506,-10.043873,0.15792629,11111021472,0.004276057,-0.005497787,0.0018325958,11111021472,55.035156
11111030558,-0.95473623,-10.043873,0.14596218,11111030558,0.004276057,-0.0061086523,0.00061086525,11111030558,55.035156
11111039652,-0.95832545,-10.04507,0.15194423,11111039652,0.004886922,-0.005497787,0.002443461,11111039652,55.027344
11111048738,-0.9523434,-10.043873,0.15553348,11111048738,0.004886922,-0.0061086523,0.0018325958,11111048738,55.027344
11111057824,-0.94396853,-10.049855,0.14117654,11111057824,0.004276057,-0.004886922,0.0018325958,11111057824,55.05078
11111066906,-0.9451649,-10.039087,0.15074782,11111066906,0.004276057,-0.004276057,0.0018325958,11111066906,55.05078
11111075998,-0.94277215,-10.042677,0.148355,11111075998,0.0036651916,-0.005497787,0.0018325958,11111075998,55.05078
11111085071,-0.94636136,-10.055838,0.15074782,11111085071,0.004276057,-0.004276057,0.0018325958,11111085071,55.05078
11111094156,-0.9451649,-10.04507,0.14596218,11111094156,0.004276057,-0.0036651916,0.0018325958,11111094156,55.01953
11111103240,-0.94277215,-10.039087,0.15074782,11111103240,0.004276057,-0.002443461,0.0030543262,11111103240,55.01953
11111112330,-0.951147,-10.037891,0.13878371,11111112330,0.004276057,-0.0030543262,0.0018325958,11111112330,55.04297
11111121426,-0.95473623,-10.035499,0.14356937,11111121426,0.0036651916,-0.0036651916,0.00061086525,11111121426,55.04297
11111130494,-0.9451649,-10.04148,0.14117654,11111130494,0.004276057,-0.0036651916,0.00061086525,11111130494,55.07422
11111139574,-0.93679005,-10.04507,0.14237295,11111139574,0.005497787,-0.0036651916,0.00061086525,11111139574,55.07422
11111148675,-0.9415757,-10.049855,0.14596218,11111148675,0.005497787,-0.0036651916,0.0012217305,11111148675,55.058594
11111157745,-0.9415757,-10.051051,0.15314065,11111157745,0.004886922,-0.002443461,0.0018325958,11111157745,55.058594
11111166827,-0.9607183,-10.04507,0.16151553,11111166827,0.0036651916,-0.0030543262,0.0018325958,11111166827,55.04297
11111175927,-0.95353985,-10.051051,0.16151553,11111175927,0.004276057,-0.0030543262,0.0012217305,11111175927,55.04297
11111184998,-0.930808,-10.048658,0.15792629,11111184998,0.0036651916,-0.002443461,0.0018325958,11111184998,55.05078
11111194091,-0.94755775,-10.033105,0.16151553,11111194091,0.004276057,-0.0030543262,0.0018325958,11111194091,55.05078
11111203185,-0.93559366,-10.04507,0.16749759,11111203185,0.0036651916,-0.0030543262,0.002443461,11111203185,55.035156
11111212263,-0.94396853,-10.051051,0.16151553,11111212263,0.004276057,-0.0036651916,0.0018325958,11111212263,55.035156
11111221339,-0.9631111,-10.04507,0.16510476,11111221339,0.0036651916,-0.0036651916,0.0018325958,11111221339,55.04297
11111230444,-0.951147,-10.04148,0.16869399,11111230444,0.004276057,-0.004886922,0.0018325958,11111230444,55.04297
11111239518,-0.9487542,-10.046266,0.16031912,11111239518,0.004886922,-0.004276057,0.0012217305,11111239518,55
11111248603,-0.9499506,-10.053444,0.16271193,11111248603,0.004886922,-0.004276057,0.002443461,11111248603,55
11111257687,-0.95473623,-10.037891,0.16869399,11111257687,0.005497787,-0.004276057,0.002443461,11111257687,55.054688
11111266769,-0.9487542,-10.048658,0.16630118,11111266769,0.0036651916,-0.004276057,0.00061086525,11111266769,55.054688
11111275843,-0.94277215,-10.040284,0.16031912,11111275843,0.004276057,-0.004886922,0.0018325958,11111275843,54.984375
11111284947,-0.94396853,-10.037891,0.17228323,11111284947,0.004276057,-0.005497787,0.0018325958,11111284947,54.984375
11111294034,-0.94396853,-10.049855,0.16749759,11111294034,0.004886922,-0.004276057,0.0018325958,11111294034,55.046875
11111303117,-0.9499506,-10.047462,0.16749759,11111303117,0.004276057,-0.005497787,0.00061086525,11111303117,55.046875
11111312187,-0.9499506,-10.046266,0.15792629,11111312187,0.004276057,-0.005497787,0.0018325958,11111312187,55.01953
11111321277,-0.9523434,-10.039087,0.15433706,11111321277,0.0030543262,-0.004276057,0.0018325958,11111321277,55.01953
11111330369,-0.9559326,-10.040284,0.15672988,11111330369,0.004276057,-0.0036651916,0.0012217305,11111330369,55.01953
11111339438,-0.9595219,-10.048658,0.16031912,11111339438,0.004886922,-0.004276057,0,11111339438,55.01953
11111348530,-0.95473623,-10.047462,0.16869399,11111348530,0.004276057,-0.004886922,0.0012217305,11111348530,55.058594
11111357622,-0.951147,-10.046266,0.1591227,11111357622,0.004886922,-0.004276057,0.0018325958,11111357622,55.058594
11111366704,-0.9595219,-10.047462,0.16749759,11111366704,0.004886922,-0.0061086523,0.0018325958,11111366704,55.01953
11111375790,-0.94277215,-10.040284,0.16271193,11111375790,0.004276057,-0.0061086523,0.0012217305,11111375790,55.01953
11111384877,-0.95353985,-10.049855,0.15314065,11111384877,0.0030543262,-0.0067195175,0.0018325958,11111384877,55.08203
11111393962,-0.9415757,-10.039087,0.1591227,11111393962,0.004886922,-0.005497787,0.0012217305,11111393962,55.08203
11111403046,-0.9523434,-10.042677,0.16510476,11111403046,0.0036651916,-0.005497787,0.0018325958,11111403046,55.027344
11111412122,-0.9607183,-10.055838,0.16031912,11111412122,0.0036651916,-0.005497787,0.00061086525,11111412122,55.027344
11111421219,-0.95712906,-10.046266,0.14955142,11111421219,0.0036651916,-0.005497787,0.0012217305,11111421219,55
11111430307,-0.94396853,-10.039087,0.15314065,11111430307,0.0030543262,-0.0061086523,0.0012217305,11111430307,55
11111439375,-0.94636136,-10.042677,0.15074782,11111439375,0.0036651916,-0.005497787,0.0012217305,11111439375,55.046875
11111448468,-0.94755775,-10.04507,0.15672988,11111448468,0.0036651916,-0.0061086523,0.0018325958,11111448468,55.046875
11111457555,-0.94396853,-10.047462,0.15194423,11111457555,0.005497787,-0.005497787,0.0018325958,11111457555,54.992188
11111466638,-0.94396853,-10.039087,0.15194423,11111466638,0.005497787,-0.004886922,0.0012217305,11111466638,54.992188
11111475720,-0.9523434,-10.043873,0.15074782,11111475720,0.0061086523,-0.004886922,0.0018325958,11111475720,55.003906
11111484817,-0.9451649,-10.04507,0.14596218,11111484817,0.004886922,-0.005497787,0.002443461,11111484817,55.003906
11111487840,-0.9523434,-10.048658,0.13998012,11111487840,0.004886922,-0.0036651916,0.0018325958,11111487840,55.023438
11111502981,-0.951147,-10.042677,0.1471586,11111502981,0.004276057,-0.0036651916,0.0012217305,11111502981,55.023438
11111512051,-0.9451649,-10.042677,0.13399807,11111512051,0.004886922,-0.004886922,0.0012217305,11111512051,55.035156
11111521147,-0.930808,-10.043873,0.14596218,11111521147,0.0061086523,-0.004886922,0.00061086525,11111521147,55.035156
11111530229,-0.9451649,-10.04507,0.13998012,11111530229,0.005497787,-0.0036651916,0,11111530229,55.058594
11111539325,-0.94396853,-10.040284,0.1471586,11111539325,0.004276057,-0.004276057,0.0018325958,11111539325,55.058594
11111548405,-0.9487542,-10.039087,0.15074782,11111548405,0.0061086523,-0.0030543262,0.0018325958,11111548405,55.01172
11111557488,-0.9451649,-10.040284,0.14237295,11111557488,0.004886922,-0.0030543262,0.0012217305,11111557488,55.01172
11111566571,-0.9559326,-10.04507,0.15672988,11111566571,0.0036651916,-0.0030543262,0.0018325958,11111566571,55.01953
11111575654,-0.93320084,-10.048658,0.148355,11111575654,0.005497787,-0.0030543262,0.002443461,11111575654,55.01953
11111584729,-0.9499506,-10.048658,0.16031912,11111584729,0.0036651916,-0.0030543262,0.0018325958,11111584729,55.035156
11111593831,-0.95353985,-10.039087,0.15792629,11111593831,0.004886922,-0.0030543262,0.0018325958,11111593831,55.035156
11111602906,-0.9595219,-10.034302,0.15433706,11111602906,0.004886922,-0.0036651916,0.0018325958,11111602906,55.05078
11111611986,-0.9523434,-10.040284,0.16031912,11111611986,0.004886922,-0.0030543262,0.002443461,11111611986,55.05078
11111621066,-0.95473623,-10.043873,0.15792629,11111621066,0.0030543262,-0.0036651916,0.002443461,11111621066,55.01172
11111630170,-0.9451649,-10.042677,0.15792629,11111630170,0.004886922,-0.0036651916,0.00061086525,11111630170,55.01172
11111639257,-0.9499506,-10.043873,0.14955142,11111639257,0.004276057,-0.0036651916,0.0012217305,11111639257,54.992188
11111648344,-0.9499506,-10.047462,0.16390835,11111648344,0.004886922,-0.002443461,0.0018325958,11111648344,54.992188
11111657419,-0.9451649,-10.042677,0.16271193,11111657419,0.0061086523,-0.0030543262,0.0012217305,11111657419,55.007812
11111666502,-0.9523434,-10.046266,0.15074782,11111666502,0.005497787,-0.0036651916,0.0018325958,11111666502,55.007812
11111675577,-0.9487542,-10.040284,0.15314065,11111675577,0.0061086523,-0.0030543262,0.00061086525,11111675577,55.01172
11111684670,-0.95832545,-10.043873,0.16510476,11111684670,0.005497787,-0.0036651916,0.00061086525,11111684670,55.01172
11111693756,-0.9487542,-10.051051,0.1591227,11111693756,0.004886922,-0.0036651916,0.00061086525,11111693756,55.003906
11111702842,-0.94396853,-10.040284,0.16271193,11111702842,0.004886922,-0.0030543262,0.0018325958,11111702842,55.003906
11111711936,-0.9499506,-10.037891,0.15194423,11111711936,0.004276057,-0.0030543262,0.0012217305,11111711936,55.01172
11111721017,-0.9487542,-10.042677,0.16390835,11111721017,0.004276057,-0.0036651916,0.0018325958,11111721017,55.01172
11111730098,-0.95353985,-10.042677,0.15194423,11111730098,0.004886922,-0.0030543262,0.0012217305,11111730098,55.003906
11111739173,-0.95473623,-10.040284,0.16151553,11111739173,0.0036651916,-0.004886922,0.00061086525,11111739173,55.003906
11111748272,-0.9523434,-10.034302,0.15792629,11111748272,0.004276057,-0.004276057,0.00061086525,11111748272,55.04297
11111757347,-0.9523434,-10.043873,0.16390835,11111757347,0.005497787,-0.004276057,0.0018325958,11111757347,55.04297
11111766430,-0.9487542,-10.046266,0.15792629,11111766430,0.004886922,-0.004276057,0.0018325958,11111766430,55.08203
11111775518,-0.9451649,-10.047462,0.16390835,11111775518,0.004886922,-0.005497787,0.0012217305,11111775518,55.08203
11111784606,-0.9487542,-10.048658,0.17228323,11111784606,0.0030543262,-0.004276057,0.0012217305,11111784606,55.027344
11111793690,-0.95473623,-10.04507,0.16749759,11111793690,0.0036651916,-0.0036651916,0.00061086525,11111793690,55.027344
11111802770,-0.94755775,-10.042677,0.16749759,11111802770,0.004276057,-0.005497787,0.0012217305,11111802770,55.01953
11111811868,-0.951147,-10.043873,0.17347965,11111811868,0.0030543262,-0.004276057,0.0012217305,11111811868,55.01953
11111820935,-0.95353985,-10.049855,0.16271193,11111820935,0.004276057,-0.004886922,0.0018325958,11111820935,55.035156
11111830016,-0.9559326,-10.04148,0.16749759,11111830016,0.004886922,-0.005497787,0.0018325958,11111830016,55.035156
11111839123,-0.94755775,-10.040284,0.16031912,11111839123,0.004886922,-0.0061086523,0.0012217305,11111839123,55.04297
11111848208,-0.9523434,-10.046266,0.16749759,11111848208,0.004276057,-0.004886922,0.00061086525,11111848208,55.04297
11111857291,-0.951147,-10.042677,0.1591227,11111857291,0.0036651916,-0.005497787,0.00061086525,11111857291,55.035156
11111866373,-0.94277215,-10.040284,0.15074782,11111866373,0.0036651916,-0.0067195175,0.00061086525,11111866373,55.035156
11111875441,-0.9499506,-10.037891,0.15314065,11111875441,0.005497787,-0.005497787,0.0012217305,11111875441,55.01172
11111884528,-0.94396853,-10.047462,0.15553348,11111884528,0.005497787,-0.005497787,0.0018325958,11111884528,55.01172
11111893613,-0.94277215,-10.049855,0.15672988,11111893613,0.0036651916,-0.0067195175,0.00061086525,11111893613,54.984375
11111902696,-0.94277215,-10.037891,0.148355,11111902696,0.004886922,-0.004886922,0.0012217305,11111902696,54.984375
11111911790,-0.9415757,-10.047462,0.14596218,11111911790,0.004276057,-0.004886922,0.0018325958,11111911790,55.070312
11111920876,-0.9499506,-10.037891,0.14955142,11111920876,0.004276057,-0.005497787,0.0012217305,11111920876,55.070312
11111929949,-0.9499506,-10.046266,0.15433706,11111929949,0.004886922,-0.004886922,0.0018325958,11111929949,55.027344
11111939039,-0.9379865,-10.037891,0.15433706,11111939039,0.004276057,-0.0061086523,0.002443461,11111939039,55.027344
11111948124,-0.951147,-10.04507,0.148355,11111948124,0.004276057,-0.004886922,0.002443461,11111948124,55.035156
11111957315,-0.9499506,-10.046266,0.15433706,11111957315,0.004886922,-0.004276057,0.002443461,11111957315,55.035156
11111966303,-0.9523434,-10.040284,0.15074782,11111966303,0.004886922,-0.0036651916,0.0012217305,11111966303,55.01172
11111975371,-0.94277215,-10.042677,0.14356937,11111975371,0.004276057,-0.004886922,0.0018325958,11111975371,55.01172
11111984475,-0.9451649,-10.040284,0.14955142,11111984475,0.0036651916,-0.004886922,0.0018325958,11111984475,55.07422
11111993541,-0.9379865,-10.042677,0.1471586,11111993541,0.0036651916,-0.0036651916,0.0018325958,11111993541,55.07422
11112002644,-0.9487542,-10.040284,0.15553348,11112002644,0.004276057,-0.004276057,0.0018325958,11112002644,55.035156
11112011730,-0.951147,-10.047462,0.15314065,11112011730,0.004886922,-0.005497787,0.0018325958,11112011730,55.035156
11112020812,-0.94277215,-10.052248,0.15074782,11112020812,0.004886922,-0.005497787,0.002443461,11112020812,55.003906
11112029899,-0.9487542,-10.046266,0.14955142,11112029899,0.004276057,-0.004276057,0.0012217305,11112029899,55.003906
11112038970,-0.95473623,-10.04507,0.15553348,11112038970,0.004276057,-0.0036651916,0.00061086525,11112038970,55.027344
11112048065,-0.9523434,-10.054641,0.148355,11112048065,0.004276057,-0.004886922,0.0012217305,11112048065,55.027344
11112057148,-0.951147,-10.042677,0.15194423,11112057148,0.005497787,-0.004886922,0.0012217305,11112057148,55.035156
11112066230,-0.95473623,-10.037891,0.14117654,11112066230,0.0036651916,-0.005497787,0.0012217305,11112066230,55.035156
11112075323,-0.951147,-10.043873,0.14476576,11112075323,0.004276057,-0.004276057,0.0012217305,11112075323,55.089844
11112084393,-0.94755775,-10.047462,0.1471586,11112084393,0.0036651916,-0.004276057,0.0018325958,11112084393,55.089844
11112093481,-0.95353985,-10.049855,0.15314065,11112093481,0.004276057,-0.004276057,0.0012217305,11112093481,55.035156
11112102577,-0.95473623,-10.048658,0.15074782,11112102577,0.004886922,-0.0036651916,0.0012217305,11112102577,55.035156
11112111648,-0.9523434,-10.049855,0.148355,11112111648,0.004886922,-0.0036651916,0.0012217305,11112111648,55.05078
11112120750,-0.94755775,-10.047462,0.1591227,11112120750,0.004886922,-0.004276057,0.0018325958,11112120750,55.05078
11112129832,-0.9595219,-10.043873,0.148355,11112129832,0.004886922,-0.004276057,0.0018325958,11112129832,55.05078
11112138906,-0.9523434,-10.049855,0.15433706,11112138906,0.0036651916,-0.004276057,0.0012217305,11112138906,55.05078
11112148004,-0.9631111,-10.04507,0.15074782,11112148004,0.004886922,-0.002443461,0.002443461,11112148004,55.05078
11112157204,-0.951147,-10.04507,0.1591227,11112157204,0.004886922,-0.002443461,0.0018325958,11112157204,55.05078
11112166169,-0.94755775,-10.061819,0.16031912,11112166169,0.0036651916,-0.004276057,0.0018325958,11112166169,55.035156
11112175246,-0.9523434,-10.046266,0.16630118,11112175246,0.004886922,-0.004276057,0.0012217305,11112175246,55.035156
11112184332,-0.9523434,-10.049855,0.16031912,11112184332,0.004276057,-0.004276057,0.0012217305,11112184332,55.089844
11112193411,-0.9523434,-10.052248,0.16031912,11112193411,0.004276057,-0.0030543262,0.0030543262,11112193411,55.089844
11112202512,-0.95473623,-10.051051,0.16869399,11112202512,0.0036651916,-0.004886922,0.0018325958,11112202512,55.01953
11112211584,-0.951147,-10.043873,0.16151553,11112211584,0.004276057,-0.005497787,0.0012217305,11112211584,55.01953
11112220675,-0.94277215,-10.04507,0.16390835,11112220675,0.004276057,-0.004276057,0.00061086525,11112220675,55.01172
11112229763,-0.94636136,-10.047462,0.17228323,11112229763,0.004886922,-0.004276057,0.0012217305,11112229763,55.01172
11112238850,-0.95712906,-10.048658,0.15672988,11112238850,0.0036651916,-0.004276057,0.0012217305,11112238850,55.01172
11112247935,-0.9631111,-10.053444,0.17706887,11112247935,0.004276057,-0.005497787,0.0012217305,11112247935,55.01172
11112257132,-0.94755775,-10.054641,0.15314065,11112257132,0.004276057,-0.005497787,0.0012217305,11112257132,55.066406
11112266097,-0.94636136,-10.054641,0.16510476,11112266097,0.004276057,-0.004886922,0.0018325958,11112266097,55.066406
11112275189,-0.93559366,-10.046266,0.16630118,11112275189,0.0036651916,-0.004276057,0.0012217305,11112275189,55.058594
11112284267,-0.9391829,-10.043873,0.16271193,11112284267,0.004276057,-0.004276057,0.0018325958,11112284267,55.058594
11112293353,-0.95473623,-10.039087,0.15553348,11112293353,0.004276057,-0.004886922,0.0012217305,11112293353,55.04297
11112302428,-0.95353985,-10.043873,0.16271193,11112302428,0.004886922,-0.004276057,0.0012217305,11112302428,55.04297
11112311530,-0.94636136,-10.040284,0.16151553,11112311530,0.0036651916,-0.004886922,0.0018325958,11112311530,55.058594
11112320603,-0.951147,-10.04507,0.15433706,11112320603,0.004886922,-0.005497787,0.0018325958,11112320603,55.058594
11112329691,-0.94636136,-10.04507,0.15672988,11112329691,0.004276057,-0.005497787,0.0018325958,11112329691,55.04297
11112338776,-0.9559326,-10.051051,0.16151553,11112338776,0.0036651916,-0.004886922,0.0012217305,11112338776,55.04297
11112347864,-0.9487542,-10.053444,0.15553348,11112347864,0.004886922,-0.004886922,0.00061086525,11112347864,55.058594
11112356947,-0.94755775,-10.049855,0.15553348,11112356947,0.004276057,-0.0036651916,0.0018325958,11112356947,55.058594
11112366016,-0.9499506,-10.04507,0.16031912,11112366016,0.0036651916,-0.004886922,0.0018325958,11112366016,55.035156
11112375102,-0.94277215,-10.040284,0.15553348,11112375102,0.0036651916,-0.004886922,0.00061086525,11112375102,55.035156
11112384197,-0.94636136,-10.043873,0.15792629,11112384197,0.004276057,-0.004276057,0.00061086525,11112384197,55.01953
11112393287,-0.9487542,-10.04507,0.15074782,11112393287,0.004276057,-0.005497787,0.0018325958,11112393287,55.01953
11112402367,-0.9451649,-10.053444,0.1471586,11112402367,0.004886922,-0.004886922,0.0018325958,11112402367,55.01172
11112411441,-0.94755775,-10.049855,0.14476576,11112411441,0.004276057,-0.004276057,0.0012217305,11112411441,55.01172
11112420533,-0.94277215,-10.053444,0.148355,11112420533,0.004886922,-0.004886922,0.0012217305,11112420533,55.05078
11112429619,-0.94755775,-10.052248,0.15194423,11112429619,0.004276057,-0.005497787,0.0018325958,11112429619,55.05078
11112438717,-0.9415757,-10.049855,0.14476576,11112438717,0.004276057,-0.005497787,0.0012217305,11112438717,55.058594
11112447788,-0.95473623,-10.042677,0.14356937,11112447788,0.004886922,-0.004886922,0.0012217305,11112447788,55.058594
11112456871,-0.96430755,-10.04507,0.1471586,11112456871,0.004886922,-0.004276057,0.0012217305,11112456871,55.05078
11112465956,-0.9451649,-10.046266,0.15672988,11112465956,0.004886922,-0.0036651916,0.0018325958,11112465956,55.05078
11112475053,-0.94636136,-10.035499,0.15433706,11112475053,0.004276057,-0.004886922,0.0018325958,11112475053,55.035156
11112484121,-0.94755775,-10.048658,0.15314065,11112484121,0.004886922,-0.005497787,0.0018325958,11112484121,55.035156
11112493221,-0.951147,-10.053444,0.15194423,11112493221,0.0030543262,-0.004886922,0.0018325958,11112493221,55.01172
11112502311,-0.94755775,-10.040284,0.15194423,11112502311,0.0036651916,-0.004886922,0.0012217305,11112502311,55.01172
11112511380,-0.9523434,-10.047462,0.1591227,11112511380,0.004276057,-0.004276057,0.0012217305,11112511380,55.04297
11112520473,-0.95712906,-10.048658,0.14596218,11112520473,0.004886922,-0.0036651916,0.0012217305,11112520473,55.04297
11112529547,-0.94755775,-10.053444,0.15672988,11112529547,0.004276057,-0.0030543262,0.00061086525,11112529547,55.027344
11112538636,-0.9451649,-10.042677,0.14476576,11112538636,0.004276057,-0.004886922,0.002443461,11112538636,55.027344
11112547725,-0.951147,-10.039087,0.15194423,11112547725,0.004886922,-0.0030543262,0.0018325958,11112547725,55.035156
11112556807,-0.9559326,-10.048658,0.14596218,11112556807,0.004886922,-0.0036651916,0.0012217305,11112556807,55.035156
11112565894,-0.94396853,-10.048658,0.16151553,11112565894,0.002443461,-0.002443461,0.0012217305,11112565894,55.05078
11112574983,-0.9487542,-10.040284,0.1471586,11112574983,0.004886922,-0.004276057,0.00061086525,11112574983,55.05078
11112584071,-0.951147,-10.046266,0.1591227,11112584071,0.004276057,-0.0036651916,0.0012217305,11112584071,55.01953
11112593145,-0.95353985,-10.049855,0.15553348,11112593145,0.0036651916,-0.0036651916,0.0018325958,11112593145,55.01953
11112602242,-0.95473623,-10.04507,0.16390835,11112602242,0.004886922,-0.0036651916,0.0018325958,11112602242,55.035156
11112611316,-0.95353985,-10.04507,0.16151553,11112611316,0.004886922,-0.004276057,0.0018325958,11112611316,55.035156
11112620408,-0.9415757,-10.046266,0.16271193,11112620408,0.004276057,-0.0030543262,0.0018325958,11112620408,55.04297
11112629486,-0.94277215,-10.049855,0.16151553,11112629486,0.0061086523,-0.004276057,0.0012217305,11112629486,55.04297
11112638574,-0.951147,-10.049855,0.15433706,11112638574,0.005497787,-0.004886922,0.002443461,11112638574,55.035156
11112647659,-0.9451649,-10.04148,0.15553348,11112647659,0.004886922,-0.0036651916,0.0018325958,11112647659,55.035156
11112656741,-0.94755775,-10.040284,0.16271193,11112656741,0.0036651916,-0.0036651916,0.0012217305,11112656741,55.066406
11112665815,-0.95473623,-10.043873,0.16151553,11112665815,0.004886922,-0.004276057,0.0018325958,11112665815,55.066406
11112674917,-0.95832545,-10.040284,0.16630118,11112674917,0.005497787,-0.0036651916,0.00061086525,11112674917,55.04297
11112684001,-0.9523434,-10.042677,0.16031912,11112684001,0.0061086523,-0.004276057,0.0012217305,11112684001,55.04297
11112693079,-0.9391829,-10.039087,0.16271193,11112693079,0.004886922,-0.004886922,0.0018325958,11112693079,55
11112702167,-0.9499506,-10.040284,0.14596218,11112702167,0.004276057,-0.004886922,0.0018325958,11112702167,55
11112711249,-0.9499506,-10.04148,0.1591227,11112711249,0.004886922,-0.0030543262,0.0018325958,11112711249,55.023438
11112720342,-0.95353985,-10.036695,0.15433706,11112720342,0.0036651916,-0.004276057,0.0018325958,11112720342,55.023438
11112729427,-0.9415757,-10.04507,0.14596218,11112729427,0.0036651916,-0.004276057,0.0012217305,11112729427,55.003906
11112738507,-0.9619147,-10.051051,0.16031912,11112738507,0.004276057,-0.004886922,0,11112738507,55.003906
11112747581,-0.94277215,-10.042677,0.1591227,11112747581,0.004886922,-0.004276057,0.0018325958,11112747581,55.04297
11112756663,-0.9499506,-10.046266,0.15672988,11112756663,0.004276057,-0.004276057,0.0018325958,11112756663,55.04297
11112765757,-0.951147,-10.047462,0.15074782,11112765757,0.004276057,-0.0036651916,0.0012217305,11112765757,55.027344
11112774853,-0.94755775,-10.047462,0.16630118,11112774853,0.004886922,-0.004276057,0.0018325958,11112774853,55.027344
11112783923,-0.9284152,-10.052248,0.16031912,11112783923,0.004886922,-0.0030543262,0.0012217305,11112783923,55.04297
11112793007,-0.94277215,-10.049855,0.16031912,11112793007,0.004276057,-0.004276057,0.0018325958,11112793007,55.04297
11112802104,-0.9523434,-10.04507,0.15792629,11112802104,0.004276057,-0.0030543262,0.0030543262,11112802104,55.035156
11112811163,-0.94636136,-10.04507,0.17108682,11112811163,0.004276057,-0.004886922,0.0012217305,11112811163,55.035156
11112820258,-0.951147,-10.052248,0.16031912,11112820258,0.004886922,-0.005497787,0.00061086525,11112820258,55.058594
11112829345,-0.94636136,-10.043873,0.15194423,11112829345,0.005497787,-0.005497787,0.00061086525,11112829345,55.058594
11112838427,-0.93679005,-10.036695,0.15792629,11112838427,0.004886922,-0.004886922,0.0018325958,11112838427,55.05078
11112847533,-0.9391829,-10.035499,0.15792629,11112847533,0.004886922,-0.004886922,0.0012217305,11112847533,55.05078
11112856616,-0.95473623,-10.040284,0.15553348,11112856616,0.004886922,-0.005497787,0.0012217305,11112856616,55.027344
11112865691,-0.95832545,-10.04148,0.15553348,11112865691,0.0036651916,-0.004886922,0.0012217305,11112865691,55.027344
11112874776,-0.95832545,-10.033105,0.15672988,11112874776,0.0036651916,-0.005497787,0.0012217305,11112874776,55.01953
11112883866,-0.95832545,-10.039087,0.14955142,11112883866,0.004276057,-0.0061086523,0.0012217305,11112883866,55.01953
11112892937,-0.95353985,-10.048658,0.15194423,11112892937,0.0036651916,-0.005497787,0.0012217305,11112892937,55.066406
11112902021,-0.95473623,-10.047462,0.15553348,11112902021,0.0036651916,-0.004886922,0.002443461,11112902021,55.066406
11112911113,-0.94277215,-10.052248,0.15433706,11112911113,0.0036651916,-0.004276057,0.002443461,11112911113,55.05078
11112920208,-0.9487542,-10.051051,0.15553348,11112920208,0.0036651916,-0.004886922,0.0012217305,11112920208,55.05078
11112929294,-0.95353985,-10.054641,0.1591227,11112929294,0.0036651916,-0.004886922,0.0012217305,11112929294,55.01953
11112938370,-0.95353985,-10.053444,0.14955142,11112938370,0.004886922,-0.004276057,0.002443461,11112938370,55.01953
11112947444,-0.9523434,-10.039087,0.14117654,11112947444,0.004886922,-0.004276057,0.002443461,11112947444,55.01172
11112956526,-0.951147,-10.049855,0.148355,11112956526,0.004276057,-0.004276057,0.0030543262,11112956526,55.01172
11112965616,-0.94636136,-10.051051,0.15194423,11112965616,0.0036651916,-0.004886922,0.0012217305,11112965616,55.08203
11112974698,-0.9451649,-10.048658,0.15792629,11112974698,0.004886922,-0.004886922,0.00061086525,11112974698,55.08203
11112983785,-0.9451649,-10.049855,0.15314065,11112983785,0.0036651916,-0.005497787,0.0012217305,11112983785,55.035156
11112992865,-0.95832545,-10.034302,0.14955142,11112992865,0.004886922,-0.004886922,0.0018325958,11112992865,55.035156
11113001957,-0.94396853,-10.04148,0.14476576,11113001957,0.005497787,-0.004886922,0.00061086525,11113001957,55.05078
11113011055,-0.94755775,-10.046266,0.15433706,11113011055,0.004276057,-0.005497787,0.002443461,11113011055,55.05078
11113020133,-0.94277215,-10.039087,0.15433706,11113020133,0.004276057,-0.004886922,0.0012217305,11113020133,55.07422
11113029212,-0.9487542,-10.055838,0.15553348,11113029212,0.004886922,-0.004276057,0.0018325958,11113029212,55.07422
11113038290,-0.94755775,-10.042677,0.14476576,11113038290,0.004276057,-0.005497787,0.00061086525,11113038290,55.04297
11113047385,-0.9451649,-10.046266,0.15314065,11113047385,0.004886922,-0.0036651916,0.0018325958,11113047385,55.04297
11113056467,-0.93679005,-10.051051,0.14596218,11113056467,0.005497787,-0.004886922,0.0018325958,11113056467,55
11113065551,-0.9559326,-10.040284,0.15314065,11113065551,0.004276057,-0.0030543262,0.0018325958,11113065551,55
11113074650,-0.9523434,-10.039087,0.15074782,11113074650,0.004886922,-0.0036651916,0.0018325958,11113074650,55.03125
11113083736,-0.951147,-10.040284,0.14476576,11113083736,0.0036651916,-0.0036651916,0.0018325958,11113083736,55.03125
11113092819,-0.94396853,-10.046266,0.15194423,11113092819,0.004276057,-0.0036651916,0.0012217305,11113092819,55.058594
11113101884,-0.9499506,-10.042677,0.16031912,11113101884,0.0036651916,-0.004276057,0.0018325958,11113101884,55.058594
11113110968,-0.94755775,-10.043873,0.16151553,11113110968,0.004886922,-0.0036651916,0.0012217305,11113110968,55.035156
11113120064,-0.951147,-10.043873,0.16390835,11113120064,0.004276057,-0.002443461,0.0018325958,11113120064,55.035156
11113129148,-0.95473623,-10.046266,0.15553348,11113129148,0.005497787,-0.0030543262,0.0012217305,11113129148,54.984375
11113138243,-0.9499506,-10.047462,0.15194423,11113138243,0.004886922,-0.0030543262,0.0012217305,11113138243,54.984375
11113147329,-0.94396853,-10.051051,0.15792629,11113147329,0.004886922,-0.0036651916,0.002443461,11113147329,55.046875
11113156411,-0.94755775,-10.057034,0.15074782,11113156411,0.004276057,-0.004276057,0.0018325958,11113156411,55.046875
11113165489,-0.94277215,-10.046266,0.15672988,11113165489,0.0036651916,-0.002443461,0.00061086525,11113165489,55.027344
11113174581,-0.9487542,-10.04507,0.16151553,11113174581,0.0036651916,-0.0030543262,0.00061086525,11113174581,55.027344
11113183657,-0.95473623,-10.04148,0.15672988,11113183657,0.0036651916,-0.0036651916,0.00061086525,11113183657,55
11113192752,-0.95712906,-10.039087,0.16630118,11113192752,0.004886922,-0.004276057,0.0018325958,11113192752,55
11113201838,-0.9499506,-10.043873,0.16031912,11113201838,0.004276057,-0.004276057,0.0012217305,11113201838,55.023438
11113210920,-0.9523434,-10.051051,0.16630118,11113210920,0.004276057,-0.004276057,0.0012217305,11113210920,55.023438
11113219999,-0.94755775,-10.048658,0.1591227,11113219999,0.004886922,-0.004276057,0.0018325958,11113219999,55.07422
11113229093,-0.95712906,-10.048658,0.17228323,11113229093,0.004276057,-0.004886922,0.0018325958,11113229093,55.07422
11113238157,-0.95353985,-10.036695,0.16390835,11113238157,0.004276057,-0.004276057,0.002443461,11113238157,55.035156
11113247260,-0.94277215,-10.042677,0.17108682,11113247260,0.004276057,-0.0036651916,0.0012217305,11113247260,55.035156
11113256342,-0.94396853,-10.043873,0.14955142,11113256342,0.0036651916,-0.004276057,0.0012217305,11113256342,55.003906
11113265419,-0.95353985,-10.033105,0.17228323,11113265419,0.004886922,-0.004886922,0.00061086525,11113265419,55.003906
11113274501,-0.94277215,-10.043873,0.16151553,11113274501,0.004276057,-0.004276057,0.0018325958,11113274501,55.04297
11113283598,-0.951147,-10.051051,0.17228323,11113283598,0.0036651916,-0.004276057,0.0018325958,11113283598,55.04297
11113292668,-0.94636136,-10.047462,0.16630118,11113292668,0.0036651916,-0.004886922,0.0012217305,11113292668,54.984375
11113301761,-0.9499506,-10.049855,0.16031912,11113301761,0.0036651916,-0.005497787,0.002443461,11113301761,54.984375
11113310851,-0.9499506,-10.04507,0.1698904,11113310851,0.0036651916,-0.004886922,0.002443461,11113310851,55.046875
11113319928,-0.9499506,-10.052248,0.17467605,11113319928,0.004276057,-0.004276057,0.002443461,11113319928,55.046875
11113329009,-0.951147,-10.049855,0.16031912,11113329009,0.004276057,-0.005497787,0.0018325958,11113329009,55.035156
11113338106,-0.9403793,-10.039087,0.16271193,11113338106,0.004276057,-0.005497787,0.00061086525,11113338106,55.035156
11113347283,-0.94755775,-10.04507,0.15194423,11113347283,0.004276057,-0.005497787,0.0012217305,11113347283,55.04297
11113356271,-0.9559326,-10.036695,0.16510476,11113356271,0.0036651916,-0.004276057,0.0012217305,11113356271,55.04297
11113365353,-0.95832545,-10.053444,0.16151553,11113365353,0.004276057,-0.004886922,0.00061086525,11113365353,55
11113374433,-0.95353985,-10.04148,0.148355,11113374433,0.0030543262,-0.004886922,0.0012217305,11113374433,55
11113383522,-0.95832545,-10.048658,0.1591227,11113383522,0.0036651916,-0.004886922,0.00061086525,11113383522,55.015625
11113392601,-0.95473623,-10.043873,0.15672988,11113392601,0.004886922,-0.005497787,0.0018325958,11113392601,55.015625
11113401701,-0.9391829,-10.052248,0.15792629,11113401701,0.0036651916,-0.004886922,0.002443461,11113401701,55.027344
11113410774,-0.951147,-10.047462,0.15792629,11113410774,0.004276057,-0.0061086523,0.0018325958,11113410774,55.027344
11113419858,-0.951147,-10.047462,0.1471586,11113419858,0.0036651916,-0.005497787,0.0018325958,11113419858,55.035156
11113428939,-0.95473623,-10.043873,0.15433706,11113428939,0.0036651916,-0.004276057,0.0018325958,11113428939,55.035156
11113438037,-0.9523434,-10.034302,0.14356937,11113438037,0.004886922,-0.0061086523,0.0018325958,11113438037,55.04297
11113447119,-0.951147,-10.043873,0.15553348,11113447119,0.005497787,-0.004276057,0.0012217305,11113447119,55.04297
11113456208,-0.94277215,-10.043873,0.15553348,11113456208,0.004276057,-0.0036651916,0.0012217305,11113456208,55.003906
11113465276,-0.9523434,-10.04148,0.14356937,11113465276,0.004276057,-0.004886922,0.0012217305,11113465276,55.003906
11113474376,-0.94636136,-10.043873,0.14476576,11113474376,0.0036651916,-0.004886922,0.0018325958,11113474376,55.01172
11113483449,-0.94277215,-10.054641,0.1471586,11113483449,0.004276057,-0.004276057,0.0012217305,11113483449,55.01172
11113492545,-0.94277215,-10.04507,0.15074782,11113492545,0.004886922,-0.0036651916,0.00061086525,11113492545,55.003906
11113501613,-0.94755775,-10.04148,0.15314065,11113501613,0.005497787,-0.0036651916,0.0012217305,11113501613,55.003906
11113510700,-0.9523434,-10.047462,0.16271193,11113510700,0.004886922,-0.0036651916,0.0018325958,11113510700,55.027344
11113519788,-0.94277215,-10.046266,0.15314065,11113519788,0.004276057,-0.0036651916,0.0018325958,11113519788,55.027344
11113528868,-0.93320084,-10.048658,0.14955142,11113528868,0.004886922,-0.0036651916,0.0018325958,11113528868,55.035156
11113537957,-0.9451649,-10.040284,0.15433706,11113537957,0.004886922,-0.0036651916,0.00061086525,11113537957,55.035156
11113547176,-0.94277215,-10.043873,0.148355,11113547176,0.005497787,-0.0036651916,0.0012217305,11113547176,55.058594
11113556141,-0.94396853,-10.059426,0.14596218,11113556141,0.005497787,-0.0036651916,0.0012217305,11113556141,55.058594
11113565210,-0.9451649,-10.047462,0.15314065,11113565210,0.004276057,-0.002443461,0.0018325958,11113565210,55.05078
11113574295,-0.9415757,-10.037891,0.15314065,11113574295,0.004886922,-0.0030543262,0.00061086525,11113574295,55.05078
11113583393,-0.94277215,-10.04507,0.15553348,11113583393,0.004886922,-0.0036651916,0.0012217305,11113583393,55.035156
11113592462,-0.9320044,-10.043873,0.16271193,11113592462,0.004886922,-0.004886922,0.0012217305,11113592462,55.035156
11113601552,-0.94636136,-10.042677,0.15672988,11113601552,0.004886922,-0.004886922,0.00061086525,11113601552,55.035156
11113610638,-0.94277215,-10.046266,0.15792629,11113610638,0.004276057,-0.0036651916,0.0012217305,11113610638,55.035156
11113619733,-0.951147,-10.04507,0.15314065,11113619733,0.0036651916,-0.0036651916,0.0018325958,11113619733,55.04297
11113628797,-0.95473623,-10.040284,0.15553348,11113628797,0.004886922,-0.0036651916,0.0012217305,11113628797,55.04297
11113637889,-0.9487542,-10.040284,0.14955142,11113637889,0.004886922,-0.004276057,0.0012217305,11113637889,55.04297
11113656068,-0.9499506,-10.047462,0.16510476,11113656068,0.004886922,-0.0030543262,0.0012217305,11113656068,55.035156
11113665151,-0.951147,-10.049855,0.16151553,11113665151,0.004886922,-0.004276057,0.0012217305,11113665151,55.035156
11113674234,-0.9499506,-10.037891,0.15314065,11113674234,0.004276057,-0.002443461,0.0012217305,11113674234,55.027344
11113683315,-0.9487542,-10.048658,0.16151553,11113683315,0.0036651916,-0.0030543262,0.00061086525,11113683315,55.027344
11113692412,-0.9523434,-10.047462,0.1698904,11113692412,0.004276057,-0.0030543262,0.0018325958,11113692412,55.066406
11113701480,-0.9595219,-10.047462,0.16031912,11113701480,0.004276057,-0.004276057,0.0012217305,11113701480,55.066406
11113710585,-0.9523434,-10.047462,0.15792629,11113710585,0.005497787,-0.002443461,0.0012217305,11113710585,55.058594
11113719664,-0.9487542,-10.048658,0.15672988,11113719664,0.004886922,-0.0036651916,0.0018325958,11113719664,55.058594
11113728738,-0.95353985,-10.04148,0.1698904,11113728738,0.004276057,-0.004276057,0.0018325958,11113728738,55.07422
11113737826,-0.951147,-10.051051,0.17587246,11113737826,0.0036651916,-0.004886922,0.0018325958,11113737826,55.07422
11113746908,-0.95712906,-10.051051,0.16510476,11113746908,0.0036651916,-0.0036651916,0.0018325958,11113746908,55.05078
11113755998,-0.9595219,-10.046266,0.16749759,11113755998,0.004276057,-0.004276057,0.002443461,11113755998,55.05078
11113765076,-0.9702896,-10.037891,0.17228323,11113765076,0.004886922,-0.005497787,0.0012217305,11113765076,54.992188
11113774156,-0.9595219,-10.036695,0.17228323,11113774156,0.004886922,-0.005497787,0.0018325958,11113774156,54.992188
11113783243,-0.9523434,-10.047462,0.16749759,11113783243,0.005497787,-0.004276057,0.0018325958,11113783243,55.015625
11113792341,-0.9595219,-10.042677,0.1591227,11113792341,0.004886922,-0.005497787,0.0018325958,11113792341,55.015625
11113801411,-0.95353985,-10.049855,0.15433706,11113801411,0.005497787,-0.005497787,0.00061086525,11113801411,55.05078
11113810501,-0.94755775,-10.034302,0.16271193,11113810501,0.005497787,-0.004886922,0.0012217305,11113810501,55.05078
11113819598,-0.94396853,-10.040284,0.15792629,11113819598,0.004276057,-0.004886922,0.0018325958,11113819598,55.027344
11113828657,-0.951147,-10.046266,0.16271193,11113828657,0.004886922,-0.0061086523,0.002443461,11113828657,55.027344
11113837754,-0.95832545,-10.052248,0.15194423,11113837754,0.004276057,-0.0061086523,0.002443461,11113837754,55.027344
11113846836,-0.9499506,-10.054641,0.16271193,11113846836,0.004886922,-0.005497787,0.0030543262,11113846836,55.027344
11113855921,-0.95832545,-10.046266,0.16031912,11113855921,0.0036651916,-0.005497787,0.0018325958,11113855921,55.04297
11113865010,-0.9499506,-10.04507,0.16031912,11113865010,0.0030543262,-0.004886922,0.0012217305,11113865010,55.04297
11113874109,-0.94277215,-10.046266,0.15314065,11113874109,0.002443461,-0.005497787,0.0018325958,11113874109,55.05078
11113883192,-0.9451649,-10.042677,0.15672988,11113883192,0.004276057,-0.004886922,0.0018325958,11113883192,55.05078
11113892251,-0.9523434,-10.052248,0.15792629,11113892251,0.004276057,-0.005497787,0.0018325958,11113892251,55.05078
11113901353,-0.94755775,-10.040284,0.15074782,11113901353,0.004276057,-0.004886922,0.0018325958,11113901353,55.05078
11113910450,-0.9523434,-10.047462,0.1471586,11113910450,0.0030543262,-0.004886922,0.00061086525,11113910450,55.01172
11113919526,-0.94277215,-10.04148,0.15672988,11113919526,0.0036651916,-0.004276057,0.0012217305,11113919526,55.01172
11113928605,-0.9499506,-10.048658,0.15553348,11113928605,0.004886922,-0.0036651916,0.0018325958,11113928605,55.04297
11113937684,-0.9451649,-10.049855,0.15792629,11113937684,0.004276057,-0.004276057,0.0012217305,11113937684,55.04297
11113946766,-0.9415757,-10.04507,0.148355,11113946766,0.004276057,-0.004886922,0.00061086525,11113946766,55.058594
11113955857,-0.95353985,-10.04148,0.14476576,11113955857,0.004276057,-0.004276057,0.0012217305,11113955857,55.058594
11113964936,-0.9559326,-10.040284,0.16031912,11113964936,0.004276057,-0.004276057,0.0012217305,11113964936,55.04297
11113974020,-0.9607183,-10.04507,0.148355,11113974020,0.004276057,-0.004886922,0.0012217305,11113974020,55.04297
11113983109,-0.96430755,-10.051051,0.14955142,11113983109,0.0030543262,-0.004886922,0.0012217305,11113983109,55.05078
11113992193,-0.94277215,-10.049855,0.14955142,11113992193,0.0036651916,-0.004276057,0.0018325958,11113992193,55.05078
11114001291,-0.95832545,-10.051051,0.148355,11114001291,0.004886922,-0.004276057,0.0012217305,11114001291,55.066406
11114010376,-0.94755775,-10.052248,0.1591227,11114010376,0.004886922,-0.004276057,0.0018325958,11114010376,55.066406
11114019453,-0.94277215,-10.043873,0.15314065,11114019453,0.0061086523,-0.002443461,0.00061086525,11114019453,55
11114028536,-0.9559326,-10.046266,0.15792629,11114028536,0.004886922,-0.0030543262,0.0012217305,11114028536,55
11114037626,-0.9487542,-10.036695,0.16151553,11114037626,0.004276057,-0.004276057,0.0018325958,11114037626,55.039062
11114046708,-0.9559326,-10.054641,0.16031912,11114046708,0.004276057,-0.0036651916,0.0018325958,11114046708,55.039062
11114055800,-0.9499506,-10.057034,0.15792629,11114055800,0.0036651916,-0.0030543262,0.0018325958,11114055800,55.05078
11114064872,-0.9523434,-10.042677,0.14596218,11114064872,0.004276057,-0.004276057,0.0012217305,11114064872,55.05078
11114073967,-0.9451649,-10.042677,0.16031912,11114073967,0.0036651916,-0.0036651916,0.0012217305,11114073967,55.003906
11114083049,-0.9499506,-10.047462,0.16510476,11114083049,0.004886922,-0.0030543262,0.0018325958,11114083049,55.003906
11114092145,-0.95712906,-10.047462,0.16749759,11114092145,0.004886922,-0.0036651916,0.0012217305,11114092145,55.01953
11114101223,-0.95832545,-10.047462,0.16271193,11114101223,0.004886922,-0.0030543262,0.0018325958,11114101223,55.01953
11114110312,-0.94755775,-10.046266,0.15433706,11114110312,0.004276057,-0.0036651916,0.002443461,11114110312,55.003906
11114119383,-0.9487542,-10.047462,0.15792629,11114119383,0.004886922,-0.0036651916,0.0012217305,11114119383,55.003906
11114128479,-0.95473623,-10.055838,0.15433706,11114128479,0.004276057,-0.0036651916,0.0012217305,11114128479,55.058594
11114137557,-0.9631111,-10.046266,0.16630118,11114137557,0.0036651916,-0.0036651916,0.0012217305,11114137557,55.058594
11114146639,-0.9667004,-10.043873,0.16151553,11114146639,0.005497787,-0.005497787,0.0012217305,11114146639,55.08203
11114155721,-0.9595219,-10.046266,0.16869399,11114155721,0.004886922,-0.004886922,0.0018325958,11114155721,55.08203
11114164819,-0.95353985,-10.046266,0.15553348,11114164819,0.0036651916,-0.004276057,0.0012217305,11114164819,55.05078
11114173907,-0.9391829,-10.042677,0.16151553,11114173907,0.004886922,-0.004886922,0.0012217305,11114173907,55.05078
11114182978,-0.95353985,-10.043873,0.16390835,11114182978,0.004886922,-0.004276057,0.0018325958,11114182978,55.01953
11114192064,-0.9607183,-10.047462,0.16390835,11114192064,0.004886922,-0.004886922,0.0012217305,11114192064,55.01953
11114201154,-0.94277215,-10.048658,0.1591227,11114201154,0.0036651916,-0.004886922,0.0012217305,11114201154,55.07422
11114210240,-0.9487542,-10.053444,0.16031912,11114210240,0.004886922,-0.004276057,0.0018325958,11114210240,55.07422
11114219329,-0.9451649,-10.040284,0.16869399,11114219329,0.004886922,-0.004886922,0.002443461,11114219329,55.01953
11114228406,-0.9523434,-10.046266,0.15792629,11114228406,0.005497787,-0.0061086523,0.0012217305,11114228406,55.01953
11114237494,-0.9487542,-10.051051,0.16271193,11114237494,0.004276057,-0.005497787,0.0012217305,11114237494,55.05078
11114246576,-0.9487542,-10.046266,0.16151553,11114246576,0.004276057,-0.004886922,0.0018325958,11114246576,55.05078
11114255654,-0.9451649,-10.039087,0.16390835,11114255654,0.002443461,-0.0061086523,0.00061086525,11114255654,55.04297
11114264741,-0.9403793,-10.048658,0.16630118,11114264741,0.004886922,-0.005497787,0.0012217305,11114264741,55.04297
11114273822,-0.94636136,-10.047462,0.16390835,11114273822,0.004886922,-0.004886922,0.0012217305,11114273822,55.035156
11114282906,-0.9487542,-10.047462,0.15792629,11114282906,0.004276057,-0.004276057,0.0018325958,11114282906,55.035156
11114291992,-0.9403793,-10.051051,0.15314065,11114291992,0.004276057,-0.004886922,0.00061086525,11114291992,55.04297
11114301082,-0.9451649,-10.049855,0.15433706,11114301082,0.004276057,-0.004886922,0.0012217305,11114301082,55.04297
11114310166,-0.9403793,-10.042677,0.148355,11114310166,0.0036651916,-0.004276057,0.0030543262,11114310166,55.027344
11114319258,-0.951147,-10.047462,0.15792629,11114319258,0.004886922,-0.005497787,0.0012217305,11114319258,55.027344
11114328337,-0.9487542,-10.057034,0.15194423,11114328337,0.0036651916,-0.005497787,0.0012217305,11114328337,54.992188
11114337427,-0.94755775,-10.053444,0.15553348,11114337427,0.0030543262,-0.004886922,0.002443461,11114337427,54.992188
11114346510,-0.9523434,-10.043873,0.15074782,11114346510,0.0030543262,-0.004886922,0.0018325958,11114346510,55.023438
11114355582,-0.9451649,-10.040284,0.15433706,11114355582,0.004886922,-0.004886922,0.0012217305,11114355582,55.023438
11114364674,-0.94755775,-10.051051,0.14356937,11114364674,0.004886922,-0.004886922,0.0018325958,11114364674,55
11114373766,-0.94277215,-10.051051,0.15792629,11114373766,0.004276057,-0.005497787,0.0018325958,11114373766,55
11114382850,-0.95473623,-10.043873,0.14476576,11114382850,0.0030543262,-0.0036651916,0.00061086525,11114382850,55.007812
11114391931,-0.9403793,-10.047462,0.148355,11114391931,0.0030543262,-0.0036651916,0.0012217305,11114391931,55.007812
11114401008,-0.9499506,-10.04507,0.15194423,11114401008,0.0036651916,-0.004276057,0.0012217305,11114401008,55.035156
11114410110,-0.9559326,-10.042677,0.14356937,11114410110,0.0036651916,-0.005497787,0.00061086525,11114410110,55.035156
11114419177,-0.9559326,-10.036695,0.14955142,11114419177,0.004886922,-0.004276057,0.0012217305,11114419177,55.109375
11114428265,-0.95473623,-10.04507,0.15194423,11114428265,0.004886922,-0.0036651916,0.002443461,11114428265,55.109375
11114437393,-0.9499506,-10.04507,0.15074782,11114437393,0.005497787,-0.004276057,0.0012217305,11114437393,55.066406
11114446429,-0.95353985,-10.049855,0.16031912,11114446429,0.004886922,-0.004276057,0.0012217305,11114446429,55.066406
11114455516,-0.94755775,-10.047462,0.16151553,11114455516,0.004276057,-0.004886922,0,11114455516,55.05078
11114464612,-0.95353985,-10.036695,0.15194423,11114464612,0.004886922,-0.004276057,0.00061086525,11114464612,55.05078
11114473688,-0.9595219,-10.048658,0.14596218,11114473688,0.004276057,-0.004886922,0.00061086525,11114473688,55.027344
11114482790,-0.94636136,-10.047462,0.15194423,11114482790,0.0036651916,-0.0036651916,0.0012217305,11114482790,55.027344
11114491871,-0.94277215,-10.053444,0.16031912,11114491871,0.0036651916,-0.004276057,0.0012217305,11114491871,55.07422
11114500946,-0.9487542,-10.043873,0.15074782,11114500946,0.004886922,-0.0030543262,0.0012217305,11114500946,55.07422
11114510041,-0.9487542,-10.037891,0.1591227,11114510041,0.005497787,-0.0030543262,0.0018325958,11114510041,55.101562
11114519111,-0.9415757,-10.036695,0.15314065,11114519111,0.004886922,-0.0036651916,0.0012217305,11114519111,55.101562
11114528196,-0.9451649,-10.049855,0.16510476,11114528196,0.004276057,-0.005497787,0.0018325958,11114528196,55.05078
11114537281,-0.9619147,-10.052248,0.16031912,11114537281,0.004276057,-0.004276057,0.0018325958,11114537281,55.05078
11114546363,-0.94755775,-10.057034,0.15314065,11114546363,0.004886922,-0.004276057,0.002443461,11114546363,55.01953
11114555455,-0.9487542,-10.046266,0.16271193,11114555455,0.004886922,-0.0036651916,0.0018325958,11114555455,55.01953
11114564534,-0.951147,-10.04148,0.15672988,11114564534,0.004886922,-0.0036651916,0.0012217305,11114564534,55.027344
11114573618,-0.9559326,-10.037891,0.15433706,11114573618,0.0036651916,-0.004886922,0.0018325958,11114573618,55.027344
11114582700,-0.9499506,-10.051051,0.15792629,11114582700,0.0036651916,-0.004276057,0.00061086525,11114582700,55.027344
11114591793,-0.95473623,-10.04507,0.15074782,11114591793,0.004276057,-0.0030543262,0.0012217305,11114591793,55.027344
11114600881,-0.9559326,-10.046266,0.15553348,11114600881,0.005497787,-0.0036651916,0.002443461,11114600881,55.07422
11114609967,-0.9451649,-10.042677,0.15792629,11114609967,0.004886922,-0.002443461,0.0018325958,11114609967,55.07422
11114619048,-0.9487542,-10.046266,0.15194423,11114619048,0.004276057,-0.0030543262,0.0012217305,11114619048,55.05078
11114628141,-0.951147,-10.04148,0.1591227,11114628141,0.004276057,-0.005497787,0.0018325958,11114628141,55.05078
11114637232,-0.9451649,-10.037891,0.15553348,11114637232,0.004886922,-0.004886922,0.002443461,11114637232,55.066406
11114646315,-0.951147,-10.039087,0.17108682,11114646315,0.004276057,-0.004886922,0.00061086525,11114646315,55.066406
11114655388,-0.9499506,-10.037891,0.16510476,11114655388,0.004886922,-0.0036651916,0.0012217305,11114655388,55.01172
11114664465,-0.94277215,-10.042677,0.1698904,11114664465,0.004886922,-0.004276057,0.0018325958,11114664465,55.01172
11114673563,-0.9499506,-10.039087,0.16271193,11114673563,0.004276057,-0.005497787,0.0012217305,11114673563,55.027344
11114682653,-0.94755775,-10.04148,0.16390835,11114682653,0.004886922,-0.004276057,0.0012217305,11114682653,55.027344
11114691722,-0.95353985,-10.040284,0.15672988,11114691722,0.004276057,-0.004276057,0.0012217305,11114691722,55.04297
11114700805,-0.9559326,-10.047462,0.16031912,11114700805,0.004276057,-0.004276057,0.0018325958,11114700805,55.04297
11114709904,-0.95473623,-10.046266,0.16749759,11114709904,0.004886922,-0.004886922,0.0018325958,11114709904,55.035156
11114718986,-0.95712906,-10.040284,0.1471586,11114718986,0.004886922,-0.005497787,0.0012217305,11114718986,55.035156
11114728064,-0.9619147,-10.04148,0.1591227,11114728064,0.004886922,-0.004276057,0.0012217305,11114728064,55.04297
11114737162,-0.9523434,-10.047462,0.16271193,11114737162,0.004886922,-0.004276057,0.00061086525,11114737162,55.04297
11114746244,-0.9487542,-10.039087,0.15433706,11114746244,0.004886922,-0.004886922,0.00061086525,11114746244,55.035156
11114755312,-0.9559326,-10.049855,0.16630118,11114755312,0.005497787,-0.004886922,0.0012217305,11114755312,55.035156
11114764410,-0.94636136,-10.057034,0.15314065,11114764410,0.004276057,-0.005497787,0.0012217305,11114764410,55.027344
11114773501,-0.9559326,-10.04507,0.15553348,11114773501,0.004886922,-0.004886922,0.002443461,11114773501,55.027344
11114782581,-0.9499506,-10.042677,0.15433706,11114782581,0.004276057,-0.004886922,0.0012217305,11114782581,55.05078
11114791655,-0.94636136,-10.051051,0.14955142,11114791655,0.004886922,-0.004886922,0.0012217305,11114791655,55.05078
11114800751,-0.951147,-10.037891,0.16031912,11114800751,0.004276057,-0.004276057,0.0012217305,11114800751,55.035156
11114809827,-0.94636136,-10.043873,0.15672988,11114809827,0.004886922,-0.004886922,0.0012217305,11114809827,55.035156
11114818909,-0.951147,-10.035499,0.15672988,11114818909,0.005497787,-0.005497787,0.0012217305,11114818909,55.035156
11114828003,-0.9559326,-10.042677,0.15672988,11114828003,0.004276057,-0.0061086523,0.0012217305,11114828003,55.035156
11114837086,-0.94636136,-10.047462,0.15314065,11114837086,0.0036651916,-0.004886922,0.0018325958,11114837086,55.05078
11114846175,-0.95353985,-10.042677,0.15433706,11114846175,0.004886922,-0.004276057,0.0018325958,11114846175,55.05078
11114855247,-0.94396853,-10.04148,0.15433706,11114855247,0.0036651916,-0.004276057,0.0012217305,11114855247,55.04297
11114864336,-0.9379865,-10.04507,0.15433706,11114864336,0.004886922,-0.004886922,0.0012217305,11114864336,55.04297
11114873424,-0.94277215,-10.042677,0.15792629,11114873424,0.004276057,-0.004886922,0.0012217305,11114873424,55.05078
11114882514,-0.9523434,-10.048658,0.15314065,11114882514,0.004276057,-0.004276057,0.0018325958,11114882514,55.05078
11114891600,-0.94636136,-10.054641,0.15314065,11114891600,0.004886922,-0.004276057,0.0018325958,11114891600,55.089844
11114900685,-0.94396853,-10.049855,0.15553348,11114900685,0.0036651916,-0.004276057,0.0018325958,11114900685,55.089844
11114909754,-0.9451649,-10.04148,0.15672988,11114909754,0.0036651916,-0.004886922,0.0012217305,11114909754,55.05078
11114918848,-0.951147,-10.04507,0.148355,11114918848,0.004886922,-0.004886922,0.00061086525,11114918848,55.05078
11114927934,-0.94636136,-10.040284,0.15672988,11114927934,0.004276057,-0.005497787,0.0012217305,11114927934,55.035156
11114937017,-0.95473623,-10.047462,0.15792629,11114937017,0.0036651916,-0.004886922,0.00061086525,11114937017,55.035156
11114946097,-0.951147,-10.047462,0.14596218,11114946097,0.0036651916,-0.004276057,0.0012217305,11114946097,55.01172
11114955183,-0.94396853,-10.046266,0.15074782,11114955183,0.0030543262,-0.0030543262,0.0018325958,11114955183,55.01172
11114964272,-0.94636136,-10.046266,0.13519448,11114964272,0.004276057,-0.0018325958,0.0018325958,11114964272,55.01953
11114973357,-0.95473623,-10.051051,0.15074782,11114973357,0.004886922,-0.0030543262,0.0018325958,11114973357,55.01953
11114982451,-0.95353985,-10.039087,0.16031912,11114982451,0.004276057,-0.0036651916,0.0012217305,11114982451,55.058594
11114991515,-0.94755775,-10.047462,0.15792629,11114991515,0.005497787,-0.0036651916,0.0012217305,11114991515,55.058594
11115000614,-0.9499506,-10.048658,0.15672988,11115000614,0.004886922,-0.0030543262,0.0012217305,11115000614,55.027344
11115009703,-0.9523434,-10.047462,0.15553348,11115009703,0.004886922,-0.0036651916,0.00061086525,11115009703,55.027344
11115018770,-0.9607183,-10.046266,0.15194423,11115018770,0.005497787,-0.004276057,0,11115018770,55.035156
11115027851,-0.95832545,-10.051051,0.16271193,11115027851,0.0036651916,-0.004886922,0.0012217305,11115027851,55.035156
11115036934,-0.9487542,-10.047462,0.15314065,11115036934,0.004276057,-0.0036651916,0.0012217305,11115036934,55.01953
11115046044,-0.9523434,-10.043873,0.15314065,11115046044,0.004276057,-0.0036651916,0.0018325958,11115046044,55.01953
11115055108,-0.94636136,-10.04507,0.16031912,11115055108,0.0036651916,-0.0036651916,0.0012217305,11115055108,55.035156
11115064196,-0.95473623,-10.049855,0.16031912,11115064196,0.0036651916,-0.0036651916,0.0012217305,11115064196,55.035156
11115073279,-0.93679005,-10.049855,0.16630118,11115073279,0.0036651916,-0.004276057,0.0012217305,11115073279,55.027344
11115082379,-0.94636136,-10.049855,0.16031912,11115082379,0.004276057,-0.0030543262,0.0012217305,11115082379,55.027344
11115091468,-0.9559326,-10.035499,0.15553348,11115091468,0.004276057,-0.004276057,0.0018325958,11115091468,55.05078
11115100544,-0.9523434,-10.049855,0.16151553,11115100544,0.005497787,-0.005497787,0.002443461,11115100544,55.05078
11115109636,-0.9451649,-10.04148,0.15194423,11115109636,0.005497787,-0.004276057,0.0018325958,11115109636,55.058594
11115118717,-0.96550393,-10.04507,0.16151553,11115118717,0.004276057,-0.004886922,0.002443461,11115118717,55.058594
11115127793,-0.95353985,-10.048658,0.1591227,11115127793,0.004276057,-0.004276057,0.0012217305,11115127793,55.035156
11115136876,-0.95473623,-10.040284,0.15433706,11115136876,0.004276057,-0.004276057,0.002443461,11115136876,55.035156
11115145963,-0.95473623,-10.047462,0.15074782,11115145963,0.004276057,-0.004276057,0.002443461,11115145963,55.027344
11115155054,-0.9499506,-10.048658,0.16630118,11115155054,0.004886922,-0.004276057,0.0012217305,11115155054,55.027344
11115164138,-0.9499506,-10.047462,0.16390835,11115164138,0.004886922,-0.004276057,0.0012217305,11115164138,55.04297
11115173221,-0.95353985,-10.048658,0.15553348,11115173221,0.004276057,-0.004276057,0.0018325958,11115173221,55.04297
11115182306,-0.9487542,-10.04507,0.16390835,11115182306,0.004276057,-0.002443461,0.0018325958,11115182306,55.058594
11115191400,-0.94396853,-10.049855,0.1591227,11115191400,0.0036651916,-0.0030543262,0.0018325958,11115191400,55.058594
11115200471,-0.9487542,-10.049855,0.16749759,11115200471,0.004886922,-0.004886922,0.002443461,11115200471,55.05078
11115209556,-0.95712906,-10.052248,0.1591227,11115209556,0.0036651916,-0.0036651916,0.002443461,11115209556,55.05078
11115218644,-0.9523434,-10.051051,0.16749759,11115218644,0.002443461,-0.004886922,0.0018325958,11115218644,55.035156
11115227722,-0.9499506,-10.049855,0.16390835,11115227722,0.004276057,-0.005497787,0.0018325958,11115227722,55.035156
11115236804,-0.9487542,-10.046266,0.16869399,11115236804,0.004276057,-0.004886922,0.0012217305,11115236804,55.066406
11115245905,-0.9487542,-10.040284,0.16031912,11115245905,0.004276057,-0.0036651916,0.0018325958,11115245905,55.066406
11115254987,-0.9487542,-10.04507,0.16749759,11115254987,0.004276057,-0.004886922,0.002443461,11115254987,55.01172
11115264075,-0.9415757,-10.04148,0.16390835,11115264075,0.004886922,-0.004276057,0.002443461,11115264075,55.01172
11115273159,-0.94277215,-10.040284,0.16510476,11115273159,0.004276057,-0.004276057,0.0018325958,11115273159,55.027344
11115282247,-0.94636136,-10.04507,0.15553348,11115282247,0.0036651916,-0.004886922,0.002443461,11115282247,55.027344
11115291318,-0.951147,-10.047462,0.16151553,11115291318,0.004886922,-0.004276057,0.0018325958,11115291318,55.027344
11115300402,-0.94755775,-10.054641,0.15672988,11115300402,0.004276057,-0.004886922,0.00061086525,11115300402,55.027344
11115309492,-0.951147,-10.049855,0.1591227,11115309492,0.004276057,-0.004886922,0.002443461,11115309492,55.01953
11115318575,-0.9403793,-10.04507,0.15553348,11115318575,0.004886922,-0.0061086523,0.0012217305,11115318575,55.01953
11115327658,-0.94396853,-10.04507,0.15314065,11115327658,0.004886922,-0.005497787,0.00061086525,11115327658,55.01172
11115336740,-0.94636136,-10.047462,0.15433706,11115336740,0.004886922,-0.004886922,0.00061086525,11115336740,55.01172
11115345839,-0.93679005,-10.047462,0.1471586,11115345839,0.004886922,-0.004886922,0.0012217305,11115345839,55.01172
11115354918,-0.951147,-10.047462,0.15792629,11115354918,0.0036651916,-0.004276057,0.0012217305,11115354918,55.01172
11115364008,-0.951147,-10.047462,0.1591227,11115364008,0.0036651916,-0.004276057,0.0012217305,11115364008,55.05078
11115373075,-0.9523434,-10.049855,0.15074782,11115373075,0.004886922,-0.004886922,0.002443461,11115373075,55.05078
11115382179,-0.9379865,-10.037891,0.15553348,11115382179,0.004276057,-0.004886922,0.0012217305,11115382179,55.027344
11115391265,-0.94636136,-10.042677,0.15074782,11115391265,0.004276057,-0.004276057,0.00061086525,11115391265,55.027344
11115400348,-0.9487542,-10.035499,0.15553348,11115400348,0.0036651916,-0.004886922,0.00061086525,11115400348,55.01953
11115409425,-0.94755775,-10.040284,0.15433706,11115409425,0.004886922,-0.004886922,0.0012217305,11115409425,55.01953
11115418498,-0.95353985,-10.04507,0.15074782,11115418498,0.005497787,-0.005497787,0.0012217305,11115418498,55.04297
11115427586,-0.951147,-10.04507,0.15314065,11115427586,0.005497787,-0.005497787,0.00061086525,11115427586,55.04297
11115436668,-0.95712906,-10.043873,0.14117654,11115436668,0.005497787,-0.005497787,0.0018325958,11115436668,55.04297
11115445756,-0.9451649,-10.048658,0.14237295,11115445756,0.0061086523,-0.005497787,0.0018325958,11115445756,55.04297
11115454843,-0.95473623,-10.052248,0.15314065,11115454843,0.0061086523,-0.0036651916,0.0012217305,11115454843,55.035156
11115463934,-0.9559326,-10.054641,0.15314065,11115463934,0.004886922,-0.0036651916,0.0018325958,11115463934,55.035156
11115473019,-0.951147,-10.054641,0.1591227,11115473019,0.0036651916,-0.0036651916,0.0018325958,11115473019,55.058594
11115482104,-0.9487542,-10.052248,0.148355,11115482104,0.004276057,-0.0036651916,0.0012217305,11115482104,55.058594
11115491200,-0.95353985,-10.049855,0.14955142,11115491200,0.005497787,-0.0036651916,0.00061086525,11115491200,55.003906
11115500284,-0.9523434,-10.042677,0.15314065,11115500284,0.004886922,-0.0036651916,0.0018325958,11115500284,55.003906
11115509355,-0.9451649,-10.043873,0.15194423,11115509355,0.004886922,-0.0036651916,0.0018325958,11115509355,55.04297
11115518449,-0.94636136,-10.046266,0.15074782,11115518449,0.005497787,-0.004886922,0.0018325958,11115518449,55.04297
11115527532,-0.951147,-10.051051,0.16151553,11115527532,0.004886922,-0.004276057,0.00061086525,11115527532,55.058594
11115536614,-0.9415757,-10.052248,0.15194423,11115536614,0.004276057,-0.0036651916,0.0012217305,11115536614,55.058594
11115545696,-0.94755775,-10.046266,0.15553348,11115545696,0.004276057,-0.002443461,0.0018325958,11115545696,55.027344
11115554783,-0.95353985,-10.047462,0.16390835,11115554783,0.004886922,-0.0030543262,0.002443461,11115554783,55.027344
11115563868,-0.95473623,-10.046266,0.16031912,11115563868,0.005497787,-0.002443461,0,11115563868,55.01172
11115572949,-0.94755775,-10.047462,0.16151553,11115572949,0.004886922,-0.0030543262,0,11115572949,55.01172
11115582035,-0.95712906,-10.046266,0.16630118,11115582035,0.004276057,-0.004886922,0.00061086525,11115582035,55.07422
11115591122,-0.9403793,-10.053444,0.1698904,11115591122,0.0036651916,-0.0036651916,0.0012217305,11115591122,55.07422
11115600208,-0.9487542,-10.052248,0.14955142,11115600208,0.004276057,-0.004886922,0,11115600208,55.04297
11115609295,-0.95712906,-10.04507,0.15792629,11115609295,0.0036651916,-0.005497787,0.0012217305,11115609295,55.04297
11115618384,-0.951147,-10.043873,0.1698904,11115618384,0.0036651916,-0.004886922,0.0012217305,11115618384,55.04297
11115627464,-0.9451649,-10.034302,0.15194423,11115627464,0.004886922,-0.005497787,0.0018325958,11115627464,55.04297
11115636546,-0.9523434,-10.040284,0.16630118,11115636546,0.004276057,-0.004886922,0.0012217305,11115636546,55.01953
11115645628,-0.9523434,-10.037891,0.16630118,11115645628,0.005497787,-0.004276057,0.0018325958,11115645628,55.01953
11115654711,-0.9559326,-10.046266,0.16151553,11115654711,0.0036651916,-0.004886922,0.002443461,11115654711,55.01172
11115663802,-0.9523434,-10.049855,0.17706887,11115663802,0.004886922,-0.005497787,0.0018325958,11115663802,55.01172
11115672872,-0.95473623,-10.046266,0.16151553,11115672872,0.005497787,-0.004886922,0.0018325958,11115672872,55.04297
11115681979,-0.95712906,-10.033105,0.16390835,11115681979,0.004886922,-0.004276057,0.0018325958,11115681979,55.04297
11115691057,-0.9559326,-10.035499,0.16151553,11115691057,0.004276057,-0.004886922,0.0012217305,11115691057,55.035156
11115700141,-0.9499506,-10.043873,0.15433706,11115700141,0.004886922,-0.004276057,0.002443461,11115700141,55.035156
11115709215,-0.95473623,-10.052248,0.16510476,11115709215,0.005497787,-0.004276057,0.002443461,11115709215,55.035156
11115718301,-0.94277215,-10.048658,0.16271193,11115718301,0.004886922,-0.002443461,0.002443461,11115718301,55.035156
11115727396,-0.95712906,-10.053444,0.1591227,11115727396,0.005497787,-0.004886922,0.00061086525,11115727396,55
11115736479,-0.95353985,-10.051051,0.16749759,11115736479,0.004886922,-0.004276057,0.0012217305,11115736479,55
11115745551,-0.94396853,-10.048658,0.15194423,11115745551,0.004276057,-0.005497787,0.0018325958,11115745551,55.046875
11115754654,-0.9487542,-10.042677,0.15672988,11115754654,0.004886922,-0.005497787,0.0018325958,11115754654,55.046875
11115763728,-0.9523434,-10.04507,0.16630118,11115763728,0.0061086523,-0.005497787,0.0012217305,11115763728,55.01172
11115772814,-0.93679005,-10.047462,0.16390835,11115772814,0.004886922,-0.004886922,0.002443461,11115772814,55.01172
11115781900,-0.9451649,-10.048658,0.17467605,11115781900,0.004276057,-0.004276057,0.0018325958,11115781900,55.05078
11115790993,-0.94636136,-10.04507,0.16151553,11115790993,0.0036651916,-0.005497787,0.0018325958,11115790993,55.05078
11115800065,-0.9523434,-10.046266,0.15553348,11115800065,0.004276057,-0.005497787,0.0030543262,11115800065,55.058594
11115809154,-0.95473623,-10.047462,0.15553348,11115809154,0.0036651916,-0.004886922,0.0018325958,11115809154,55.058594
11115818240,-0.9487542,-10.047462,0.15074782,11115818240,0.0036651916,-0.005497787,0.0030543262,11115818240,55.035156
11115827321,-0.9451649,-10.043873,0.15672988,11115827321,0.004276057,-0.004886922,0.0018325958,11115827321,55.035156
11115836403,-0.94755775,-10.04507,0.148355,11115836403,0.004886922,-0.004886922,0.00061086525,11115836403,55.035156
11115845484,-0.94755775,-10.04148,0.148355,11115845484,0.004886922,-0.0036651916,0.0012217305,11115845484,55.035156
11115854581,-0.9559326,-10.043873,0.14476576,11115854581,0.004276057,-0.004276057,0.0012217305,11115854581,55.04297
11115863672,-0.94277215,-10.043873,0.148355,11115863672,0.004886922,-0.004276057,0.0018325958,11115863672,55.04297
11115872748,-0.94636136,-10.046266,0.15074782,11115872748,0.0030543262,-0.004276057,0.0018325958,11115872748,55.07422
11115881831,-0.951147,-10.046266,0.15433706,11115881831,0.0036651916,-0.004886922,0.0018325958,11115881831,55.07422
11115890916,-0.93559366,-10.049855,0.14955142,11115890916,0.004276057,-0.005497787,0.0018325958,11115890916,55.04297
11115900000,-0.9320044,-10.051051,0.13998012,11115900000,0.0036651916,-0.004886922,0.0018325958,11115900000,55.04297
11115909087,-0.9499506,-10.049855,0.14955142,11115909087,0.004276057,-0.004276057,0.0018325958,11115909087,55.05078
11115918173,-0.95712906,-10.042677,0.14237295,11115918173,0.005497787,-0.0036651916,0.0012217305,11115918173,55.05078
11115927254,-0.9499506,-10.04507,0.148355,11115927254,0.004886922,-0.004276057,0.0012217305,11115927254,55.035156
11115936336,-0.9403793,-10.049855,0.15074782,11115936336,0.004276057,-0.0036651916,0.0012217305,11115936336,55.035156
11115945431,-0.951147,-10.04507,0.15194423,11115945431,0.002443461,-0.0036651916,0.0012217305,11115945431,55.035156
11115954512,-0.9415757,-10.051051,0.15792629,11115954512,0.0030543262,-0.0030543262,0.00061086525,11115954512,55.035156
11115963603,-0.9487542,-10.051051,0.16271193,11115963603,0.004276057,-0.0030543262,0.0018325958,11115963603,55.01953
11115972673,-0.9619147,-10.042677,0.16151553,11115972673,0.004276057,-0.004276057,0.0018325958,11115972673,55.01953
11115981762,-0.95712906,-10.04507,0.15314065,11115981762,0.004276057,-0.004276057,0.0012217305,11115981762,55.027344
11115990841,-0.951147,-10.04507,0.15553348,11115990841,0.004276057,-0.004276057,0.0012217305,11115990841,55.027344
11115999924,-0.94636136,-10.052248,0.15672988,11115999924,0.004886922,-0.0036651916,0.0018325958,11115999924,55.027344
11116009024,-0.95712906,-10.046266,0.15672988,11116009024,0.004276057,-0.0036651916,0.002443461,11116009024,55.027344
11116018116,-0.94755775,-10.048658,0.16271193,11116018116,0.0030543262,-0.0036651916,0.0012217305,11116018116,55.035156
11116027204,-0.94755775,-10.052248,0.148355,11116027204,0.0036651916,-0.0036651916,0.0012217305,11116027204,55.035156
11116036263,-0.94277215,-10.040284,0.15433706,11116036263,0.0036651916,-0.004276057,0.0018325958,11116036263,55.035156
11116045358,-0.94636136,-10.042677,0.16271193,11116045358,0.004886922,-0.002443461,0.0018325958,11116045358,55.035156
11116054427,-0.95353985,-10.054641,0.16749759,11116054427,0.004276057,-0.002443461,0.0030543262,11116054427,55.05078
11116063527,-0.95473623,-10.047462,0.16749759,11116063527,0.004276057,-0.0036651916,0.002443461,11116063527,55.05078
11116072607,-0.95712906,-10.052248,0.17108682,11116072607,0.0061086523,-0.0036651916,0.0012217305,11116072607,55.035156
11116081690,-0.9559326,-10.043873,0.16151553,11116081690,0.004886922,-0.0036651916,0.00061086525,11116081690,55.035156
11116090790,-0.95353985,-10.043873,0.17467605,11116090790,0.004276057,-0.004276057,0.0012217305,11116090790,55.01953
11116099858,-0.951147,-10.047462,0.16031912,11116099858,0.004276057,-0.004276057,0.0012217305,11116099858,55.01953
11116108948,-0.95712906,-10.040284,0.16510476,11116108948,0.0036651916,-0.0030543262,0.002443461,11116108948,55.066406
11116118031,-0.9499506,-10.035499,0.16749759,11116118031,0.0030543262,-0.004276057,0.002443461,11116118031,55.066406
11116127141,-0.951147,-10.04148,0.16271193,11116127141,0.0036651916,-0.004276057,0.0012217305,11116127141,55.01953
11116136200,-0.94277215,-10.04148,0.16390835,11116136200,0.0036651916,-0.004276057,0.0012217305,11116136200,55.01953
11116145301,-0.951147,-10.04148,0.16869399,11116145301,0.004886922,-0.004886922,0.0012217305,11116145301,55.003906
11116154366,-0.9499506,-10.051051,0.17108682,11116154366,0.004886922,-0.005497787,0.0018325958,11116154366,55.003906
11116163452,-0.95353985,-10.039087,0.17826529,11116163452,0.005497787,-0.004886922,0.0012217305,11116163452,55.01172
11116172548,-0.95353985,-10.049855,0.16869399,11116172548,0.0036651916,-0.0036651916,0.0018325958,11116172548,55.01172
11116181618,-0.94396853,-10.054641,0.16630118,11116181618,0.004886922,-0.004276057,0.0012217305,11116181618,55.003906
11116190710,-0.9523434,-10.046266,0.15314065,11116190710,0.004886922,-0.004886922,0.0018325958,11116190710,55.003906
11116199803,-0.94636136,-10.052248,0.15792629,11116199803,0.004886922,-0.005497787,0.0018325958,11116199803,55.058594
11116208889,-0.94396853,-10.040284,0.15792629,11116208889,0.004886922,-0.0061086523,0.0012217305,11116208889,55.058594
11116217977,-0.94396853,-10.043873,0.16031912,11116217977,0.004886922,-0.005497787,0.00061086525,11116217977,55.04297
11116227208,-0.9595219,-10.039087,0.15792629,11116227208,0.004276057,-0.005497787,0.00061086525,11116227208,55.04297
11116236149,-0.9403793,-10.035499,0.15314065,11116236149,0.0036651916,-0.004886922,0.0012217305,11116236149,55.07422
11116245231,-0.95353985,-10.04507,0.15553348,11116245231,0.005497787,-0.004886922,0.0012217305,11116245231,55.07422
11116254310,-0.9595219,-10.057034,0.15433706,11116254310,0.004886922,-0.004886922,0.0012217305,11116254310,55.04297
11116263384,-0.9487542,-10.048658,0.15314065,11116263384,0.004886922,-0.004276057,0.0012217305,11116263384,55.04297
11116272466,-0.9595219,-10.037891,0.15553348,11116272466,0.004886922,-0.004886922,0.0018325958,11116272466,55.058594
11116281557,-0.9499506,-10.04148,0.14955142,11116281557,0.004276057,-0.004886922,0.0018325958,11116281557,55.058594
11116290639,-0.95353985,-10.04148,0.1591227,11116290639,0.004886922,-0.004886922,0.0018325958,11116290639,55.01953
11116299736,-0.9499506,-10.055838,0.15314065,11116299736,0.0036651916,-0.004886922,0.002443461,11116299736,55.01953
11116308810,-0.94755775,-10.049855,0.15314065,11116308810,0.004276057,-0.005497787,0.00061086525,11116308810,55.01953
11116317895,-0.9451649,-10.039087,0.15074782,11116317895,0.005497787,-0.004886922,0.0018325958,11116317895,55.01953
11116326978,-0.951147,-10.047462,0.15074782,11116326978,0.004276057,-0.004276057,0.0018325958,11116326978,55.04297
11116336080,-0.95353985,-10.049855,0.15433706,11116336080,0.004276057,-0.004276057,0.002443461,11116336080,55.04297
11116345157,-0.9499506,-10.04507,0.15194423,11116345157,0.004276057,-0.0036651916,0.0018325958,11116345157,55.035156
11116354243,-0.951147,-10.034302,0.16031912,11116354243,0.0036651916,-0.004276057,0.0018325958,11116354243,55.035156
11116363316,-0.94755775,-10.043873,0.15433706,11116363316,0.005497787,-0.004886922,0.0018325958,11116363316,55.04297
11116372411,-0.9499506,-10.035499,0.15194423,11116372411,0.004276057,-0.004886922,0.0018325958,11116372411,55.04297
11116381490,-0.951147,-10.043873,0.15792629,11116381490,0.004276057,-0.004886922,0.0012217305,11116381490,55.08203
11116390590,-0.94755775,-10.046266,0.15194423,11116390590,0.0036651916,-0.004276057,0.0018325958,11116390590,55.08203
11116399666,-0.94396853,-10.049855,0.16510476,11116399666,0.0036651916,-0.004276057,0.0018325958,11116399666,55.05078
11116408752,-0.951147,-10.042677,0.15194423,11116408752,0.0036651916,-0.004886922,0.002443461,11116408752,55.05078
11116417842,-0.9451649,-10.043873,0.14596218,11116417842,0.005497787,-0.004276057,0.0018325958,11116417842,55.04297
11116426924,-0.9523434,-10.048658,0.15314065,11116426924,0.005497787,-0.004276057,0.0018325958,11116426924,55.04297
11116435997,-0.9595219,-10.047462,0.148355,11116435997,0.004276057,-0.004276057,0.0018325958,11116435997,55.027344
11116445080,-0.9523434,-10.043873,0.15314065,11116445080,0.004276057,-0.004886922,0.0012217305,11116445080,55.027344
11116454166,-0.951147,-10.042677,0.16271193,11116454166,0.004886922,-0.0036651916,0.0012217305,11116454166,55
11116463269,-0.951147,-10.04507,0.15194423,11116463269,0.004276057,-0.0036651916,0.0018325958,11116463269,55
11116472336,-0.9487542,-10.043873,0.15553348,11116472336,0.005497787,-0.0036651916,0.0012217305,11116472336,55.039062
11116481430,-0.9487542,-10.049855,0.15314065,11116481430,0.005497787,-0.0036651916,0.00061086525,11116481430,55.039062
11116490520,-0.94636136,-10.043873,0.15194423,11116490520,0.004886922,-0.004276057,0.0012217305,11116490520,55.04297
11116499602,-0.93559366,-10.052248,0.16510476,11116499602,0.0036651916,-0.0018325958,0.00061086525,11116499602,55.04297
11116508679,-0.9523434,-10.047462,0.148355,11116508679,0.004276057,-0.0030543262,0.0018325958,11116508679,55.01953
11116517758,-0.9499506,-10.053444,0.16031912,11116517758,0.004276057,-0.0036651916,0.0018325958,11116517758,55.01953
11116526841,-0.951147,-10.048658,0.16390835,11116526841,0.004276057,-0.0030543262,0.0012217305,11116526841,55.058594
11116535943,-0.9607183,-10.051051,0.15792629,11116535943,0.0036651916,-0.0030543262,0.00061086525,11116535943,55.058594
11116545019,-0.9523434,-10.052248,0.16510476,11116545019,0.004276057,-0.0036651916,0.0012217305,11116545019,55.04297
11116554099,-0.95712906,-10.042677,0.16031912,11116554099,0.004886922,-0.0030543262,0.0018325958,11116554099,55.04297
11116563198,-0.94636136,-10.035499,0.17587246,11116563198,0.004886922,-0.0036651916,0.0012217305,11116563198,55.05078
11116572286,-0.9403793,-10.042677,0.15553348,11116572286,0.004276057,-0.004276057,0.0018325958,11116572286,55.05078
11116581371,-0.94277215,-10.046266,0.16390835,11116581371,0.004276057,-0.004886922,0.002443461,11116581371,55
11116590444,-0.9523434,-10.049855,0.1591227,11116590444,0.004886922,-0.0061086523,0.0018325958,11116590444,55
11116599521,-0.94277215,-10.042677,0.16151553,11116599521,0.004886922,-0.004886922,0.0018325958,11116599521,55.070312
11116608620,-0.9523434,-10.055838,0.15553348,11116608620,0.005497787,-0.004276057,0.0012217305,11116608620,55.070312
11116617707,-0.94396853,-10.04507,0.16510476,11116617707,0.004276057,-0.004276057,0.0012217305,11116617707,55.01953
11116626789,-0.95832545,-10.043873,0.1591227,11116626789,0.004886922,-0.004886922,0.0018325958,11116626789,55.01953
11116635877,-0.9523434,-10.054641,0.148355,11116635877,0.0036651916,-0.004886922,0.0018325958,11116635877,55.04297
11116644943,-0.94396853,-10.036695,0.15672988,11116644943,0.0036651916,-0.004276057,0.00061086525,11116644943,55.04297
11116654038,-0.9451649,-10.04507,0.15672988,11116654038,0.0036651916,-0.005497787,0.0012217305,11116654038,55.003906
11116663121,-0.9595219,-10.054641,0.15194423,11116663121,0.004276057,-0.004276057,0.0018325958,11116663121,55.003906
11116672199,-0.95353985,-10.039087,0.1591227,11116672199,0.0036651916,-0.004886922,0.0012217305,11116672199,55.066406
11116681281,-0.94636136,-10.047462,0.15553348,11116681281,0.0036651916,-0.0061086523,0.00061086525,11116681281,55.066406
11116690378,-0.94755775,-10.047462,0.15553348,11116690378,0.004886922,-0.004886922,0.0012217305,11116690378,55.058594
11116699459,-0.95473623,-10.047462,0.13878371,11116699459,0.0036651916,-0.004276057,0.0012217305,11116699459,55.058594
11116708549,-0.951147,-10.04148,0.14955142,11116708549,0.004276057,-0.0036651916,0.00061086525,11116708549,55
11116717623,-0.94277215,-10.039087,0.1591227,11116717623,0.004886922,-0.004886922,0.0012217305,11116717623,55
11116726705,-0.9523434,-10.047462,0.16749759,11116726705,0.0036651916,-0.004276057,0.002443461,11116726705,55.015625
11116735796,-0.9619147,-10.035499,0.15792629,11116735796,0.004886922,-0.0036651916,0.0012217305,11116735796,55.015625
11116744896,-0.95712906,-10.052248,0.15792629,11116744896,0.004886922,-0.005497787,0.0012217305,11116744896,55.003906
11116753967,-0.9499506,-10.04507,0.16390835,11116753967,0.004276057,-0.005497787,0.0012217305,11116753967,55.003906
11116763056,-0.9499506,-10.04507,0.1591227,11116763056,0.004886922,-0.005497787,0.0012217305,11116763056,55.04297
11116772136,-0.93679005,-10.048658,0.15553348,11116772136,0.004886922,-0.0067195175,0.0018325958,11116772136,55.04297
11116781233,-0.9391829,-10.040284,0.15672988,11116781233,0.004886922,-0.004886922,0.0018325958,11116781233,55.07422
11116790309,-0.9415757,-10.035499,0.1591227,11116790309,0.004886922,-0.004276057,0,11116790309,55.07422
11116799389,-0.9523434,-10.051051,0.15553348,11116799389,0.004886922,-0.004276057,0.0012217305,11116799389,55.035156
11116808481,-0.951147,-10.04507,0.15314065,11116808481,0.004886922,-0.004276057,0.0012217305,11116808481,55.035156
11116817577,-0.95473623,-10.042677,0.14596218,11116817577,0.004886922,-0.004886922,0.0012217305,11116817577,55.027344
11116826659,-0.94277215,-10.048658,0.148355,11116826659,0.004886922,-0.004276057,0.0012217305,11116826659,55.027344
11116835739,-0.94755775,-10.04148,0.15433706,11116835739,0.004276057,-0.005497787,0.00061086525,11116835739,55.08203
11116844824,-0.951147,-10.034302,0.15194423,11116844824,0.004886922,-0.005497787,0.0012217305,11116844824,55.08203
11116853906,-0.94396853,-10.051051,0.148355,11116853906,0.0036651916,-0.004886922,0.0012217305,11116853906,55
11116862980,-0.94755775,-10.046266,0.15314065,11116862980,0.004276057,-0.004276057,0.0018325958,11116862980,55
11116872073,-0.94396853,-10.04507,0.14356937,11116872073,0.004276057,-0.0036651916,0.0018325958,11116872073,55.054688
11116881169,-0.9499506,-10.043873,0.13878371,11116881169,0.004276057,-0.0036651916,0.0012217305,11116881169,55.054688
11116890249,-0.9559326,-10.046266,0.148355,11116890249,0.004276057,-0.004276057,0.00061086525,11116890249,55.027344
11116899331,-0.9451649,-10.043873,0.1471586,11116899331,0.004276057,-0.0036651916,0.0012217305,11116899331,55.027344
11116908404,-0.951147,-10.053444,0.15672988,11116908404,0.004886922,-0.004276057,0.0018325958,11116908404,55.05078
11116917487,-0.9451649,-10.04507,0.15433706,11116917487,0.004886922,-0.004276057,0.002443461,11116917487,55.05078
11116926570,-0.94396853,-10.046266,0.16151553,11116926570,0.004886922,-0.0036651916,0.0012217305,11116926570,55.05078
11116935672,-0.9451649,-10.047462,0.15433706,11116935672,0.004886922,-0.0036651916,0.00061086525,11116935672,55.05078
11116944750,-0.9523434,-10.042677,0.16749759,11116944750,0.005497787,-0.0036651916,0.00061086525,11116944750,55.05078
11116953841,-0.9499506,-10.039087,0.15194423,11116953841,0.004886922,-0.0036651916,0.0018325958,11116953841,55.05078
11116962909,-0.95353985,-10.034302,0.16510476,11116962909,0.0036651916,-0.0030543262,0.0012217305,11116962909,55.07422
11116972000,-0.95473623,-10.049855,0.15672988,11116972000,0.004276057,-0.004276057,0.0012217305,11116972000,55.07422
11116981083,-0.9487542,-10.040284,0.16271193,11116981083,0.0036651916,-0.004886922,0.0018325958,11116981083,55.07422
11116990179,-0.951147,-10.052248,0.16151553,11116990179,0.004276057,-0.0036651916,0.0018325958,11116990179,55.07422
11116999256,-0.9595219,-10.04507,0.16390835,11116999256,0.0036651916,-0.0030543262,0.0012217305,11116999256,55.07422
11117008338,-0.95473623,-10.037891,0.16031912,11117008338,0.004276057,-0.0036651916,0.0018325958,11117008338,55.07422
11117017436,-0.9523434,-10.046266,0.16510476,11117017436,0.004276057,-0.004276057,0.0018325958,11117017436,55.01953
11117026518,-0.95832545,-10.043873,0.16510476,11117026518,0.0036651916,-0.0036651916,0.00061086525,11117026518,55.01953
11117035605,-0.94755775,-10.043873,0.16510476,11117035605,0.0036651916,-0.0036651916,0.00061086525,11117035605,55.08203
11117044685,-0.9523434,-10.048658,0.15672988,11117044685,0.0036651916,-0.004886922,0.0012217305,11117044685,55.08203
11117053778,-0.94755775,-10.049855,0.15792629,11117053778,0.004276057,-0.0036651916,0.0012217305,11117053778,55.01953
11117062842,-0.9487542,-10.04507,0.15792629,11117062842,0.004886922,-0.004886922,0.0012217305,11117062842,55.01953
11117071918,-0.9487542,-10.043873,0.15672988,11117071918,0.004886922,-0.005497787,0.0012217305,11117071918,55.05078
11117081031,-0.9523434,-10.057034,0.1591227,11117081031,0.0036651916,-0.004886922,0.0012217305,11117081031,55.05078
11117090098,-0.9499506,-10.046266,0.15553348,11117090098,0.005497787,-0.004276057,0.0012217305,11117090098,55.01953
11117099189,-0.95712906,-10.04148,0.15314065,11117099189,0.004886922,-0.0030543262,0.0018325958,11117099189,55.01953
11117108277,-0.94636136,-10.042677,0.15433706,11117108277,0.004886922,-0.004276057,0.0012217305,11117108277,55.003906
11117117356,-0.94277215,-10.034302,0.15553348,11117117356,0.005497787,-0.004886922,0.00061086525,11117117356,55.003906
11117126439,-0.94636136,-10.04507,0.16151553,11117126439,0.005497787,-0.0036651916,0.002443461,11117126439,55.035156
11117135520,-0.951147,-10.04148,0.16390835,11117135520,0.004276057,-0.004886922,0.0018325958,11117135520,55.035156
11117144617,-0.9523434,-10.052248,0.15553348,11117144617,0.004276057,-0.0036651916,0.0012217305,11117144617,55.05078
11117153694,-0.95353985,-10.037891,0.16390835,11117153694,0.004276057,-0.004886922,0.0018325958,11117153694,55.05078
11117162790,-0.9391829,-10.052248,0.16151553,11117162790,0.004276057,-0.004886922,0.0018325958,11117162790,55.05078
11117171881,-0.951147,-10.054641,0.16510476,11117171881,0.004276057,-0.0036651916,0.0012217305,11117171881,55.05078
11117180955,-0.9415757,-10.054641,0.1591227,11117180955,0.005497787,-0.004276057,0.0018325958,11117180955,55.066406
11117190030,-0.9559326,-10.049855,0.1591227,11117190030,0.004276057,-0.004276057,0.0012217305,11117190030,55.066406
11117199118,-0.9499506,-10.043873,0.16390835,11117199118,0.004886922,-0.004276057,0.0012217305,11117199118,55.01172
11117208218,-0.9499506,-10.035499,0.16031912,11117208218,0.004886922,-0.004886922,0.0012217305,11117208218,55.01172
11117217293,-0.9559326,-10.047462,0.15074782,11117217293,0.004886922,-0.005497787,0.0012217305,11117217293,55.027344
11117226375,-0.94636136,-10.047462,0.15433706,11117226375,0.004886922,-0.0061086523,0.0018325958,11117226375,55.027344
11117235460,-0.9451649,-10.039087,0.16151553,11117235460,0.004276057,-0.005497787,0.0012217305,11117235460,55.035156
11117244546,-0.9607183,-10.052248,0.148355,11117244546,0.004276057,-0.005497787,0.0018325958,11117244546,55.035156
11117253635,-0.95473623,-10.04507,0.15194423,11117253635,0.004276057,-0.004886922,0.0018325958,11117253635,55.035156
11117262700,-0.94755775,-10.042677,0.1471586,11117262700,0.0036651916,-0.004886922,0.0012217305,11117262700,55.035156
11117271801,-0.9559326,-10.046266,0.15314065,11117271801,0.004276057,-0.004276057,0.0018325958,11117271801,55.01172
11117280898,-0.94755775,-10.055838,0.14476576,11117280898,0.004276057,-0.004276057,0.0018325958,11117280898,55.01172
11117289981,-0.9523434,-10.046266,0.15672988,11117289981,0.004276057,-0.004276057,0.0012217305,11117289981,55.05078
11117299057,-0.9523434,-10.040284,0.16031912,11117299057,0.004276057,-0.004886922,0.002443461,11117299057,55.05078
11117308145,-0.95473623,-10.04507,0.15314065,11117308145,0.004276057,-0.0036651916,0.0018325958,11117308145,55.027344
11117317314,-0.9523434,-10.04148,0.15074782,11117317314,0.004886922,-0.004886922,0.0018325958,11117317314,55.027344
11117326302,-0.9523434,-10.046266,0.148355,11117326302,0.004886922,-0.004276057,0.0018325958,11117326302,55.117188
11117335389,-0.95473623,-10.04148,0.15553348,11117335389,0.004886922,-0.004276057,0.0012217305,11117335389,55.117188
11117344485,-0.9415757,-10.048658,0.1471586,11117344485,0.004276057,-0.004276057,0.0018325958,11117344485,55
11117353570,-0.9499506,-10.051051,0.16031912,11117353570,0.004276057,-0.0036651916,0.00061086525,11117353570,55
11117362639,-0.9559326,-10.048658,0.15553348,11117362639,0.0036651916,-0.004886922,0.0012217305,11117362639,55.007812
11117371742,-0.9451649,-10.04148,0.15314065,11117371742,0.0030543262,-0.004276057,0.00061086525,11117371742,55.007812
11117380808,-0.9595219,-10.037891,0.15433706,11117380808,0.004276057,-0.004886922,0.0018325958,11117380808,55.035156
11117389907,-0.95473623,-10.039087,0.15672988,11117389907,0.004886922,-0.004886922,0.0018325958,11117389907,55.035156
11117398986,-0.9487542,-10.049855,0.15433706,11117398986,0.0036651916,-0.004276057,0.0018325958,11117398986,55.05078
11117408063,-0.95473623,-10.040284,0.15314065,11117408063,0.0036651916,-0.0036651916,0.0018325958,11117408063,55.05078
11117417273,-0.95473623,-10.039087,0.15074782,11117417273,0.004276057,-0.004276057,0.0018325958,11117417273,55.066406
11117426238,-0.9403793,-10.046266,0.1591227,11117426238,0.0061086523,-0.0036651916,0.002443461,11117426238,55.066406
11117435336,-0.9403793,-10.048658,0.15074782,11117435336,0.005497787,-0.0036651916,0.002443461,11117435336,55.04297
11117444190,-0.95353985,-10.039087,0.14955142,11117444190,0.004276057,-0.004886922,0.0018325958,11117444190,55.04297
11117453488,-0.94636136,-10.04148,0.16271193,11117453488,0.0036651916,-0.004886922,0.0018325958,11117453488,55.027344
11117462576,-0.95473623,-10.05823,0.1591227,11117462576,0.004276057,-0.004276057,0.0018325958,11117462576,55.027344
11117471657,-0.9607183,-10.046266,0.16390835,11117471657,0.004886922,-0.004276057,0.00061086525,11117471657,55.027344
11117480760,-0.9487542,-10.036695,0.148355,11117480760,0.004276057,-0.004276057,0.00061086525,11117480760,55.027344
11117489826,-0.951147,-10.037891,0.16151553,11117489826,0.0036651916,-0.004276057,0.00061086525,11117489826,55.04297
11117498916,-0.94636136,-10.052248,0.14955142,11117498916,0.004276057,-0.0036651916,0.00061086525,11117498916,55.04297
11117508003,-0.9523434,-10.039087,0.15792629,11117508003,0.004886922,-0.0030543262,0.0012217305,11117508003,55.058594
11117517157,-0.95712906,-10.042677,0.16031912,11117517157,0.004276057,-0.002443461,0.0018325958,11117517157,55.058594
11117526169,-0.95353985,-10.046266,0.15672988,11117526169,0.005497787,-0.0036651916,0.0018325958,11117526169,55.101562
11117535257,-0.951147,-10.04148,0.16630118,11117535257,0.004276057,-0.0036651916,0.0018325958,11117535257,55.101562
11117544352,-0.9499506,-10.04507,0.1698904,11117544352,0.004276057,-0.004276057,0.0012217305,11117544352,55.04297
11117553435,-0.9523434,-10.04148,0.16510476,11117553435,0.004886922,-0.004276057,0.0012217305,11117553435,55.04297
11117562510,-0.94636136,-10.042677,0.15672988,11117562510,0.0036651916,-0.004276057,0.0012217305,11117562510,55.01953
11117571598,-0.9487542,-10.039087,0.1591227,11117571598,0.004886922,-0.004276057,0.0018325958,11117571598,55.01953
11117580696,-0.9595219,-10.04148,0.16271193,11117580696,0.004886922,-0.004886922,0.0012217305,11117580696,55.04297
11117589763,-0.94755775,-10.052248,0.16390835,11117589763,0.004276057,-0.004886922,0.00061086525,11117589763,55.04297
11117598859,-0.9595219,-10.049855,0.16271193,11117598859,0.004886922,-0.004886922,0.0018325958,11117598859,55.04297
11117607934,-0.9487542,-10.042677,0.16271193,11117607934,0.004276057,-0.004886922,0.0018325958,11117607934,55.04297
11117617016,-0.9451649,-10.039087,0.15074782,11117617016,0.004276057,-0.004886922,0.0012217305,11117617016,55.07422
11117626102,-0.94636136,-10.049855,0.16271193,11117626102,0.004276057,-0.004276057,0.0012217305,11117626102,55.07422
11117635190,-0.94396853,-10.043873,0.16271193,11117635190,0.004886922,-0.005497787,0.0012217305,11117635190,55.01953
11117644274,-0.95353985,-10.048658,0.16749759,11117644274,0.0036651916,-0.004886922,0.0012217305,11117644274,55.01953
11117653351,-0.9559326,-10.04148,0.16151553,11117653351,0.004276057,-0.005497787,0.0012217305,11117653351,55.066406
11117662447,-0.94277215,-10.042677,0.148355,11117662447,0.0036651916,-0.004886922,0.0012217305,11117662447,55.066406
11117671530,-0.9499506,-10.046266,0.17228323,11117671530,0.004886922,-0.005497787,0.0012217305,11117671530,55.035156
11117680618,-0.94396853,-10.047462,0.15672988,11117680618,0.004886922,-0.004886922,0.0018325958,11117680618,55.035156
11117689712,-0.9499506,-10.04148,0.14955142,11117689712,0.004276057,-0.005497787,0.002443461,11117689712,55.07422
11117698793,-0.9487542,-10.04148,0.15433706,11117698793,0.004276057,-0.005497787,0.0018325958,11117698793,55.07422
11117707284,-0.951147,-10.043873,0.148355,11117707284,0.004276057,-0.004276057,0.0012217305,11117707284,55.05078
11117710903,-0.94755775,-10.043873,0.15792629,11117710903,0.004886922,-0.004886922,0.0030543262,11117710903,55.05078
11117726040,-0.94636136,-10.046266,0.15314065,11117726040,0.004886922,-0.004276057,0.0018325958,11117726040,55.058594
11117735113,-0.9487542,-10.040284,0.15553348,11117735113,0.004886922,-0.004276057,0.0018325958,11117735113,55.058594
11117744219,-0.9499506,-10.048658,0.15792629,11117744219,0.005497787,-0.004276057,0.0018325958,11117744219,55.035156
11117753306,-0.951147,-10.052248,0.15672988,11117753306,0.004276057,-0.004886922,0.002443461,11117753306,55.035156
11117762378,-0.94755775,-10.051051,0.1591227,11117762378,0.005497787,-0.004886922,0.0012217305,11117762378,55.035156
11117771459,-0.95353985,-10.04507,0.14596218,11117771459,0.004276057,-0.004886922,0.00061086525,11117771459,55.035156
11117780547,-0.94755775,-10.047462,0.14955142,11117780547,0.004276057,-0.0036651916,0.0018325958,11117780547,55.04297
11117789627,-0.9523434,-10.037891,0.16031912,11117789627,0.004886922,-0.004276057,0.0012217305,11117789627,55.04297
11117798715,-0.9523434,-10.046266,0.17347965,11117798715,0.004886922,-0.004276057,0.00061086525,11117798715,55.058594
11117807794,-0.94277215,-10.043873,0.15792629,11117807794,0.004276057,-0.004276057,0.0012217305,11117807794,55.058594
11117816877,-0.9451649,-10.043873,0.15792629,11117816877,0.004886922,-0.005497787,0.0012217305,11117816877,55.01172
11117825962,-0.9391829,-10.048658,0.15553348,11117825962,0.0036651916,-0.005497787,0.0012217305,11117825962,55.01172
11117835055,-0.9523434,-10.048658,0.1471586,11117835055,0.004276057,-0.004886922,0.0018325958,11117835055,55.101562
11117844132,-0.9487542,-10.051051,0.14596218,11117844132,0.004886922,-0.004886922,0.00061086525,11117844132,55.101562
11117853234,-0.9499506,-10.04507,0.15074782,11117853234,0.004886922,-0.004886922,0.0012217305,11117853234,55.05078
11117862309,-0.9451649,-10.04507,0.14237295,11117862309,0.004276057,-0.0030543262,0.0012217305,11117862309,55.05078
11117871408,-0.9487542,-10.04148,0.15074782,11117871408,0.005497787,-0.004276057,0.0018325958,11117871408,55.04297
11117880472,-0.9559326,-10.037891,0.1471586,11117880472,0.004276057,-0.004276057,0.002443461,11117880472,55.04297
11117889560,-0.9415757,-10.049855,0.13998012,11117889560,0.005497787,-0.004886922,0.0018325958,11117889560,55.08203
11117898644,-0.9487542,-10.040284,0.15314065,11117898644,0.0030543262,-0.004276057,0.0012217305,11117898644,55.08203
11117907732,-0.9451649,-10.047462,0.15074782,11117907732,0.0030543262,-0.004886922,0.00061086525,11117907732,55.035156
11117916814,-0.9379865,-10.029516,0.14476576,11117916814,0.004276057,-0.004276057,0.0012217305,11117916814,55.035156
11117925908,-0.94636136,-10.043873,0.14955142,11117925908,0.004276057,-0.004276057,0.0012217305,11117925908,55.066406
11117934995,-0.9523434,-10.042677,0.14356937,11117934995,0.004276057,-0.0030543262,0.00061086525,11117934995,55.066406
11117944080,-0.95473623,-10.043873,0.15433706,11117944080,0.0036651916,-0.0030543262,0.0012217305,11117944080,55.05078
11117953169,-0.9499506,-10.04507,0.1471586,11117953169,0.0036651916,-0.0030543262,0.002443461,11117953169,55.05078
11117962249,-0.9487542,-10.051051,0.15314065,11117962249,0.004276057,-0.0030543262,0.0018325958,11117962249,55.027344
11117971329,-0.95353985,-10.037891,0.1591227,11117971329,0.004886922,-0.0030543262,0.0018325958,11117971329,55.027344
11117980412,-0.951147,-10.046266,0.1591227,11117980412,0.005497787,-0.0036651916,0.0012217305,11117980412,55.07422
11117989503,-0.94636136,-10.047462,0.16390835,11117989503,0.004886922,-0.0030543262,0.00061086525,11117989503,55.07422
11117998586,-0.94755775,-10.049855,0.16749759,11117998586,0.004886922,-0.004276057,0.0012217305,11117998586,55.08203
11118007675,-0.9487542,-10.034302,0.16630118,11118007675,0.0036651916,-0.004276057,0.0012217305,11118007675,55.08203
11118016757,-0.95473623,-10.042677,0.1591227,11118016757,0.0036651916,-0.0036651916,0.0018325958,11118016757,55.058594
11118025844,-0.9523434,-10.052248,0.16271193,11118025844,0.004276057,-0.004276057,0.00061086525,11118025844,55.058594
11118034933,-0.9487542,-10.054641,0.1698904,11118034933,0.0036651916,-0.0030543262,0.0012217305,11118034933,55.01953
11118044016,-0.94636136,-10.043873,0.16031912,11118044016,0.0036651916,-0.004886922,0.0012217305,11118044016,55.01953
11118053103,-0.94636136,-10.034302,0.15194423,11118053103,0.0036651916,-0.004886922,0.0012217305,11118053103,55.035156
11118062179,-0.9451649,-10.049855,0.15314065,11118062179,0.004276057,-0.004886922,0.002443461,11118062179,55.035156
11118071253,-0.9451649,-10.037891,0.1471586,11118071253,0.004276057,-0.005497787,0.0018325958,11118071253,55.04297
11118080341,-0.94755775,-10.042677,0.15553348,11118080341,0.005497787,-0.004886922,0.0018325958,11118080341,55.04297
11118089422,-0.94277215,-10.049855,0.15553348,11118089422,0.004886922,-0.005497787,0.0018325958,11118089422,55.035156
11118098515,-0.9451649,-10.04507,0.16869399,11118098515,0.005497787,-0.004276057,0.0012217305,11118098515,55.035156
11118107591,-0.94755775,-10.047462,0.148355,11118107591,0.005497787,-0.004276057,0.0012217305,11118107591,55.05078
11118116674,-0.95473623,-10.039087,0.15194423,11118116674,0.004276057,-0.005497787,0.0012217305,11118116674,55.05078
11118125779,-0.96430755,-10.04507,0.15314065,11118125779,0.0036651916,-0.004886922,0.0012217305,11118125779,55.035156
11118134860,-0.95832545,-10.04507,0.15672988,11118134860,0.004276057,-0.004276057,0,11118134860,55.035156
11118143939,-0.9559326,-10.047462,0.15672988,11118143939,0.004886922,-0.005497787,0.0018325958,11118143939,55.066406
11118153027,-0.9451649,-10.046266,0.16151553,11118153027,0.0036651916,-0.004276057,0.00061086525,11118153027,55.066406
11118162104,-0.9559326,-10.046266,0.15314065,11118162104,0.004276057,-0.004276057,0.0018325958,11118162104,55.01172
11118171186,-0.94396853,-10.043873,0.16271193,11118171186,0.004276057,-0.005497787,0.0018325958,11118171186,55.01172
11118180284,-0.94636136,-10.042677,0.16031912,11118180284,0.004886922,-0.004276057,0.0018325958,11118180284,55.058594
11118189366,-0.94277215,-10.052248,0.1698904,11118189366,0.004886922,-0.004886922,0.0012217305,11118189366,55.058594
11118198457,-0.94396853,-10.051051,0.15553348,11118198457,0.004886922,-0.004886922,0.0018325958,11118198457,55.035156
11118207545,-0.951147,-10.042677,0.15314065,11118207545,0.005497787,-0.005497787,0.0030543262,11118207545,55.035156
11118216627,-0.9499506,-10.048658,0.1591227,11118216627,0.004276057,-0.004886922,0.0012217305,11118216627,55.035156
11118225714,-0.9451649,-10.040284,0.15553348,11118225714,0.004276057,-0.005497787,0.00061086525,11118225714,55.035156
11118234789,-0.9451649,-10.040284,0.16390835,11118234789,0.0036651916,-0.005497787,0.0018325958,11118234789,55.01953
11118243874,-0.94277215,-10.046266,0.15433706,11118243874,0.004276057,-0.0036651916,0.00061086525,11118243874,55.01953
11118252954,-0.93559366,-10.053444,0.14356937,11118252954,0.005497787,-0.005497787,0.0012217305,11118252954,55.05078
11118262051,-0.9523434,-10.042677,0.14955142,11118262051,0.004886922,-0.004886922,0.0018325958,11118262051,55.05078
11118271128,-0.94755775,-10.049855,0.14596218,11118271128,0.004276057,-0.005497787,0.002443461,11118271128,55.05078
11118280216,-0.9523434,-10.039087,0.148355,11118280216,0.0036651916,-0.0036651916,0.0018325958,11118280216,55.05078
11118289300,-0.94755775,-10.051051,0.15074782,11118289300,0.004276057,-0.004886922,0.002443461,11118289300,55.04297
11118298388,-0.94636136,-10.039087,0.15314065,11118298388,0.004886922,-0.004886922,0.00061086525,11118298388,55.04297
11118307456,-0.93559366,-10.04507,0.14596218,11118307456,0.005497787,-0.004276057,0.0012217305,11118307456,55.035156
11118316538,-0.9391829,-10.049855,0.14237295,11118316538,0.005497787,-0.0036651916,0.00061086525,11118316538,55.035156
11118325633,-0.95353985,-10.037891,0.15792629,11118325633,0.004276057,-0.0030543262,0.0012217305,11118325633,55.01172
11118334711,-0.95353985,-10.04148,0.15672988,11118334711,0.004276057,-0.0030543262,0.0012217305,11118334711,55.01172
11118343801,-0.95473623,-10.046266,0.14476576,11118343801,0.004886922,-0.0030543262,0.00061086525,11118343801,55.01953
11118352891,-0.9487542,-10.047462,0.15074782,11118352891,0.004276057,-0.0036651916,0.0018325958,11118352891,55.01953
11118361986,-0.9379865,-10.047462,0.16031912,11118361986,0.005497787,-0.004276057,0.0018325958,11118361986,55.058594
11118371057,-0.9499506,-10.043873,0.16749759,11118371057,0.0061086523,-0.004276057,0.002443461,11118371057,55.058594
11118380139,-0.9403793,-10.037891,0.16390835,11118380139,0.0061086523,-0.004276057,0.0012217305,11118380139,55.01172
11118389224,-0.94396853,-10.040284,0.16510476,11118389224,0.005497787,-0.0030543262,0.0012217305,11118389224,55.01172
11118398313,-0.94636136,-10.049855,0.15194423,11118398313,0.004886922,-0.0030543262,0.0012217305,11118398313,54.992188
11118407397,-0.9391829,-10.04148,0.15792629,11118407397,0.0036651916,-0.0036651916,0.0012217305,11118407397,54.992188
11118416480,-0.951147,-10.046266,0.16031912,11118416480,0.004886922,-0.0030543262,0.0012217305,11118416480,54.996094
11118425570,-0.9607183,-10.047462,0.16749759,11118425570,0.004276057,-0.0036651916,0.0018325958,11118425570,54.996094
11118434659,-0.9451649,-10.046266,0.16151553,11118434659,0.004886922,-0.004276057,0.0018325958,11118434659,55.0625
11118443734,-0.9523434,-10.04507,0.15672988,11118443734,0.004886922,-0.004886922,0.00061086525,11118443734,55.0625
11118452817,-0.951147,-10.049855,0.15074782,11118452817,0.004276057,-0.004276057,0.0012217305,11118452817,55.027344
11118461896,-0.94277215,-10.043873,0.14955142,11118461896,0.0036651916,-0.004886922,0.00061086525,11118461896,55.027344
11118470998,-0.95712906,-10.04148,0.15672988,11118470998,0.004276057,-0.0061086523,0.0012217305,11118470998,55.089844
11118480081,-0.94755775,-10.043873,0.15553348,11118480081,0.004886922,-0.004276057,0.0012217305,11118480081,55.089844
11118489166,-0.9523434,-10.046266,0.15194423,11118489166,0.004886922,-0.004886922,0.0012217305,11118489166,55
11118498258,-0.9595219,-10.051051,0.15433706,11118498258,0.005497787,-0.0036651916,0.0012217305,11118498258,55
11118507341,-0.9523434,-10.030712,0.15672988,11118507341,0.004276057,-0.0030543262,0.0018325958,11118507341,55.003906
11118516423,-0.95832545,-10.036695,0.15433706,11118516423,0.004276057,-0.0036651916,0.0012217305,11118516423,55.003906
11118525505,-0.95832545,-10.046266,0.15553348,11118525505,0.004276057,-0.0030543262,0.0018325958,11118525505,55.054688
11118534576,-0.951147,-10.043873,0.16390835,11118534576,0.004276057,-0.0036651916,0.0012217305,11118534576,55.054688
11118543679,-0.9487542,-10.043873,0.15553348,11118543679,0.0030543262,-0.0036651916,0.0012217305,11118543679,55.027344
11118552758,-0.9619147,-10.042677,0.16031912,11118552758,0.004276057,-0.004886922,0.0030543262,11118552758,55.027344
11118561841,-0.9487542,-10.040284,0.15672988,11118561841,0.004886922,-0.0036651916,0.0012217305,11118561841,55.01172
11118567315,-0.94755775,-10.040284,0.16151553,11118567315,0.0036651916,-0.004886922,0.0018325958,11118567315,55.01172
11118580021,-0.94396853,-10.046266,0.16151553,11118580021,0.004276057,-0.004276057,0.0012217305,11118580021,55.066406
11118589101,-0.951147,-10.053444,0.16151553,11118589101,0.004276057,-0.004276057,0.00061086525,11118589101,55.066406
11118598186,-0.9559326,-10.043873,0.16630118,11118598186,0.004886922,-0.0061086523,0.0012217305,11118598186,55.035156
11118607270,-0.9487542,-10.030712,0.16271193,11118607270,0.004886922,-0.0061086523,0.0012217305,11118607270,55.035156
11118616352,-0.9499506,-10.04148,0.15792629,11118616352,0.005497787,-0.0036651916,0.0018325958,11118616352,55.027344
11118625440,-0.9415757,-10.037891,0.16151553,11118625440,0.004276057,-0.004276057,0.0012217305,11118625440,55.027344
11118634510,-0.95473623,-10.037891,0.15672988,11118634510,0.004886922,-0.0036651916,0.0018325958,11118634510,55.027344
11118643613,-0.94396853,-10.047462,0.15792629,11118643613,0.005497787,-0.004886922,0.0018325958,11118643613,55.027344
11118652693,-0.94636136,-10.048658,0.1591227,11118652693,0.0030543262,-0.004276057,0.0018325958,11118652693,55.066406
11118661773,-0.9499506,-10.048658,0.15314065,11118661773,0.0030543262,-0.004886922,0.0012217305,11118661773,55.066406
11118670864,-0.9451649,-10.039087,0.15672988,11118670864,0.0030543262,-0.005497787,0.0012217305,11118670864,55.05078
11118679934,-0.9499506,-10.04148,0.15314065,11118679934,0.004276057,-0.0061086523,0.0018325958,11118679934,55.05078
11118689032,-0.951147,-10.040284,0.15792629,11118689032,0.004886922,-0.004886922,0.0018325958,11118689032,55.003906
11118698114,-0.9391829,-10.043873,0.148355,11118698114,0.005497787,-0.004276057,0.0012217305,11118698114,55.003906
11118707190,-0.9523434,-10.036695,0.14955142,11118707190,0.005497787,-0.0030543262,0.00061086525,11118707190,54.992188
11118716272,-0.94277215,-10.052248,0.14476576,11118716272,0.004886922,-0.004276057,0.0012217305,11118716272,54.992188
11118725365,-0.95353985,-10.049855,0.15672988,11118725365,0.004886922,-0.004886922,0.0018325958,11118725365,54.996094
11118734439,-0.95712906,-10.049855,0.15314065,11118734439,0.0036651916,-0.0036651916,0.0012217305,11118734439,54.996094
11118743539,-0.951147,-10.043873,0.14596218,11118743539,0.004886922,-0.004886922,0.0018325958,11118743539,55.003906
11118752608,-0.94277215,-10.051051,0.1591227,11118752608,0.004276057,-0.0061086523,0.0012217305,11118752608,55.003906
11118761715,-0.9487542,-10.037891,0.15194423,11118761715,0.004886922,-0.004886922,0.0018325958,11118761715,55.046875
11118770784,-0.94396853,-10.042677,0.15433706,11118770784,0.004276057,-0.004276057,0.00061086525,11118770784,55.046875
11118779875,-0.9499506,-10.043873,0.16749759,11118779875,0.004276057,-0.004886922,0.0018325958,11118779875,55.01172
11118788960,-0.9451649,-10.04507,0.15074782,11118788960,0.005497787,-0.004276057,0.0018325958,11118788960,55.01172
11118798054,-0.9487542,-10.047462,0.15074782,11118798054,0.004276057,-0.004276057,0.0018325958,11118798054,55.035156
11118807285,-0.95353985,-10.042677,0.15792629,11118807285,0.004276057,-0.004276057,0.0018325958,11118807285,55.035156
11118816202,-0.951147,-10.049855,0.15553348,11118816202,0.005497787,-0.004276057,0.0012217305,11118816202,55.066406
11118825288,-0.94755775,-10.048658,0.16749759,11118825288,0.005497787,-0.004886922,0.0018325958,11118825288,55.066406
11118834387,-0.9499506,-10.047462,0.15553348,11118834387,0.0030543262,-0.005497787,0.0018325958,11118834387,55.003906
11118843465,-0.9487542,-10.049855,0.15553348,11118843465,0.004276057,-0.004886922,0.0018325958,11118843465,55.003906
11118852549,-0.94755775,-10.052248,0.15553348,11118852549,0.004276057,-0.004276057,0.0018325958,11118852549,55.027344
11118861643,-0.9403793,-10.053444,0.16151553,11118861643,0.005497787,-0.004886922,0.0018325958,11118861643,55.027344
11118870712,-0.95353985,-10.047462,0.15553348,11118870712,0.004886922,-0.0036651916,0.0012217305,11118870712,55.01953
11118879803,-0.94636136,-10.042677,0.15672988,11118879803,0.004276057,-0.004276057,0.0018325958,11118879803,55.01953
11118888892,-0.9415757,-10.054641,0.16031912,11118888892,0.004886922,-0.004276057,0.0018325958,11118888892,55.04297
11118897980,-0.94636136,-10.043873,0.14955142,11118897980,0.004276057,-0.004276057,0.002443461,11118897980,55.04297
11118907062,-0.95353985,-10.049855,0.16390835,11118907062,0.0036651916,-0.004276057,0.0018325958,11118907062,55.027344
11118916156,-0.951147,-10.043873,0.15672988,11118916156,0.0036651916,-0.004276057,0.002443461,11118916156,55.027344
11118925239,-0.9523434,-10.046266,0.15074782,11118925239,0.004276057,-0.0030543262,0.0018325958,11118925239,55.035156
11118934314,-0.9559326,-10.04507,0.16630118,11118934314,0.004886922,-0.004276057,0.0018325958,11118934314,55.035156
11118943401,-0.951147,-10.042677,0.15314065,11118943401,0.0036651916,-0.004886922,0.0012217305,11118943401,55.07422
11118952493,-0.9499506,-10.040284,0.16031912,11118952493,0.0036651916,-0.002443461,0.00061086525,11118952493,55.07422
11118961579,-0.95353985,-10.031909,0.16630118,11118961579,0.004886922,-0.002443461,0.00061086525,11118961579,55.003906
11118970661,-0.9499506,-10.04507,0.15672988,11118970661,0.004886922,-0.0036651916,0.0012217305,11118970661,55.003906
11118979731,-0.9451649,-10.047462,0.16869399,11118979731,0.004276057,-0.004886922,0.002443461,11118979731,55.035156
11118988818,-0.94755775,-10.037891,0.15314065,11118988818,0.0036651916,-0.005497787,0.0018325958,11118988818,55.035156
11118997909,-0.95832545,-10.04148,0.16151553,11118997909,0.005497787,-0.004886922,0.0018325958,11118997909,55.05078
11119007184,-0.94755775,-10.04148,0.16151553,11119007184,0.004276057,-0.004276057,0.0018325958,11119007184,55.05078
11119016078,-0.9607183,-10.037891,0.15672988,11119016078,0.0036651916,-0.0030543262,0.0012217305,11119016078,55.066406
11119025164,-0.951147,-10.04507,0.16151553,11119025164,0.004276057,-0.0036651916,0.0018325958,11119025164,55.066406
11119034250,-0.9499506,-10.043873,0.16031912,11119034250,0.005497787,-0.0036651916,0.0012217305,11119034250,55.058594
11119043328,-0.9451649,-10.04148,0.1591227,11119043328,0.005497787,-0.004276057,0.00061086525,11119043328,55.058594
11119052413,-0.95712906,-10.04148,0.1591227,11119052413,0.004276057,-0.005497787,0.0012217305,11119052413,55.066406
11119061495,-0.9451649,-10.042677,0.15553348,11119061495,0.0036651916,-0.004886922,0.0018325958,11119061495,55.066406
11119070582,-0.93679005,-10.034302,0.15314065,11119070582,0.0036651916,-0.004886922,0.00061086525,11119070582,55.058594
11119079661,-0.95473623,-10.040284,0.15792629,11119079661,0.004276057,-0.004276057,0.0012217305,11119079661,55.058594
11119088764,-0.95473623,-10.049855,0.15314065,11119088764,0.004886922,-0.0061086523,0.0012217305,11119088764,55.01172
11119097846,-0.9487542,-10.052248,0.1471586,11119097846,0.005497787,-0.004886922,0.0018325958,11119097846,55.01172
11119106928,-0.9451649,-10.046266,0.14596218,11119106928,0.004886922,-0.004276057,0.00061086525,11119106928,55.01953
11119116003,-0.94755775,-10.039087,0.15553348,11119116003,0.004276057,-0.005497787,0.0012217305,11119116003,55.01953
11119125083,-0.9451649,-10.046266,0.16031912,11119125083,0.004886922,-0.0061086523,0.0012217305,11119125083,55.035156
11119134177,-0.9523434,-10.04507,0.15672988,11119134177,0.005497787,-0.0061086523,0.0012217305,11119134177,55.035156
11119143258,-0.9451649,-10.043873,0.1698904,11119143258,0.004276057,-0.005497787,0.0018325958,11119143258,55.05078
11119152339,-0.95712906,-10.040284,0.15314065,11119152339,0.0036651916,-0.005497787,0.0018325958,11119152339,55.05078
11119161442,-0.9499506,-10.042677,0.15314065,11119161442,0.004276057,-0.004886922,0.0012217305,11119161442,55.066406
11119170518,-0.9499506,-10.040284,0.15314065,11119170518,0.004276057,-0.004886922,0.0012217305,11119170518,55.066406
11119179612,-0.95353985,-10.054641,0.148355,11119179612,0.004886922,-0.004886922,0.0018325958,11119179612,55.027344
11119188680,-0.9415757,-10.049855,0.15194423,11119188680,0.004276057,-0.004276057,0.002443461,11119188680,55.027344
11119197780,-0.95353985,-10.043873,0.14596218,11119197780,0.004886922,-0.0036651916,0.0012217305,11119197780,55.035156
11119206862,-0.94396853,-10.048658,0.16749759,11119206862,0.004886922,-0.005497787,0.0018325958,11119206862,55.035156
11119215943,-0.9451649,-10.047462,0.15194423,11119215943,0.004886922,-0.004886922,0.002443461,11119215943,55.08203
11119225030,-0.9451649,-10.036695,0.1591227,11119225030,0.004276057,-0.0030543262,0.0018325958,11119225030,55.08203
11119234108,-0.95353985,-10.040284,0.15433706,11119234108,0.004886922,-0.004276057,0.00061086525,11119234108,55.035156
11119243194,-0.94755775,-10.043873,0.15194423,11119243194,0.004886922,-0.004886922,0.0018325958,11119243194,55.035156
11119252292,-0.94636136,-10.051051,0.15553348,11119252292,0.004886922,-0.004886922,0.0018325958,11119252292,55.05078
11119261366,-0.951147,-10.047462,0.1591227,11119261366,0.004886922,-0.004276057,0.0012217305,11119261366,55.05078
11119270444,-0.94636136,-10.04148,0.14117654,11119270444,0.0036651916,-0.004886922,0.002443461,11119270444,55.066406
11119279533,-0.9523434,-10.035499,0.15433706,11119279533,0.004276057,-0.004276057,0.002443461,11119279533,55.066406
11119288624,-0.9499506,-10.046266,0.15433706,11119288624,0.0036651916,-0.004276057,0.0018325958,11119288624,55.01172
11119297705,-0.94396853,-10.040284,0.15314065,11119297705,0.004276057,-0.0036651916,0.0018325958,11119297705,55.01172
11119306787,-0.9451649,-10.042677,0.15433706,11119306787,0.004276057,-0.004276057,0.0018325958,11119306787,55.027344
11119315870,-0.9415757,-10.040284,0.15433706,11119315870,0.004276057,-0.004276057,0.0018325958,11119315870,55.027344
11119324952,-0.9523434,-10.047462,0.16271193,11119324952,0.004886922,-0.0036651916,0.0018325958,11119324952,55.04297
11119334033,-0.9523434,-10.046266,0.14596218,11119334033,0.004886922,-0.004276057,0.002443461,11119334033,55.04297
11119343135,-0.9451649,-10.040284,0.15314065,11119343135,0.004276057,-0.005497787,0.002443461,11119343135,55.01172
11119352222,-0.9499506,-10.04148,0.15433706,11119352222,0.0030543262,-0.0036651916,0.0012217305,11119352222,55.01172
11119361307,-0.94396853,-10.039087,0.15314065,11119361307,0.004276057,-0.0036651916,0.00061086525,11119361307,55.07422
11119370387,-0.9607183,-10.039087,0.15194423,11119370387,0.004276057,-0.004276057,0,11119370387,55.07422
11119379458,-0.9487542,-10.040284,0.14955142,11119379458,0.004886922,-0.0036651916,0.00061086525,11119379458,54.964844
11119388551,-0.9403793,-10.04507,0.16630118,11119388551,0.0036651916,-0.0030543262,0.0018325958,11119388551,54.964844
11119397633,-0.94396853,-10.042677,0.15433706,11119397633,0.0036651916,-0.0030543262,0.0018325958,11119397633,55.007812
11119406715,-0.94755775,-10.040284,0.15553348,11119406715,0.004276057,-0.0036651916,0.0012217305,11119406715,55.007812
11119415801,-0.9451649,-10.048658,0.16510476,11119415801,0.0036651916,-0.0036651916,0.0012217305,11119415801,55.04297
11119424889,-0.9487542,-10.04507,0.15433706,11119424889,0.004886922,-0.004886922,0.00061086525,11119424889,55.04297
11119433967,-0.95473623,-10.042677,0.15792629,11119433967,0.004276057,-0.005497787,0.0018325958,11119433967,55.05078
11119443063,-0.9487542,-10.046266,0.16151553,11119443063,0.005497787,-0.005497787,0.0018325958,11119443063,55.05078
11119452152,-0.94755775,-10.053444,0.16630118,11119452152,0.004886922,-0.004886922,0.0012217305,11119452152,55.058594
11119461236,-0.9559326,-10.052248,0.17467605,11119461236,0.0030543262,-0.004276057,0.0018325958,11119461236,55.058594
11119470321,-0.9499506,-10.04507,0.16749759,11119470321,0.0036651916,-0.004276057,0.002443461,11119470321,55.01953
11119479404,-0.951147,-10.034302,0.16510476,11119479404,0.004886922,-0.004886922,0.0012217305,11119479404,55.01953
11119488479,-0.95353985,-10.057034,0.15194423,11119488479,0.004276057,-0.0036651916,0.0012217305,11119488479,55.027344
11119497565,-0.9499506,-10.04507,0.15433706,11119497565,0.0036651916,-0.0030543262,0.0018325958,11119497565,55.027344
11119506648,-0.94277215,-10.047462,0.15433706,11119506648,0.0036651916,-0.004276057,0.0018325958,11119506648,55.04297
11119515730,-0.95353985,-10.040284,0.15672988,11119515730,0.005497787,-0.004886922,0.0012217305,11119515730,55.04297
11119524815,-0.9487542,-10.039087,0.16271193,11119524815,0.004886922,-0.004886922,0.002443461,11119524815,55.04297
11119533903,-0.9451649,-10.046266,0.14955142,11119533903,0.004886922,-0.004886922,0.002443461,11119533903,55.04297
11119542993,-0.9559326,-10.04148,0.15553348,11119542993,0.004886922,-0.004886922,0.0012217305,11119542993,55.066406
11119552081,-0.9499506,-10.040284,0.15792629,11119552081,0.004276057,-0.004276057,0.002443461,11119552081,55.066406
11119561174,-0.94277215,-10.048658,0.15314065,11119561174,0.0036651916,-0.004276057,0.0018325958,11119561174,55.07422
11119570252,-0.9499506,-10.040284,0.14476576,11119570252,0.004886922,-0.0036651916,0.0012217305,11119570252,55.07422
11119579339,-0.9499506,-10.049855,0.1471586,11119579339,0.004276057,-0.004276057,0.0012217305,11119579339,55.08203
11119588422,-0.94277215,-10.046266,0.15672988,11119588422,0.0030543262,-0.004276057,0.0018325958,11119588422,55.08203
11119597513,-0.94755775,-10.043873,0.16869399,11119597513,0.004886922,-0.004276057,0.002443461,11119597513,55.027344
11119606595,-0.94755775,-10.046266,0.16031912,11119606595,0.004276057,-0.005497787,0.0018325958,11119606595,55.027344
11119615667,-0.9451649,-10.034302,0.15314065,11119615667,0.004886922,-0.004886922,0.0012217305,11119615667,55.05078
11119624753,-0.9415757,-10.04148,0.1471586,11119624753,0.004886922,-0.0036651916,0.0018325958,11119624753,55.05078
