accelerationTimestamp,accelerationX,accelerationY,accelerationZ,angularSpeedTimestamp,angularSpeedX,angularSpeedY,angularSpeedZ,temperatureTimestamp,temperature
11277825070,-1.6701902,13.854444,0.6652047,11277825070,-0.21135938,-0.893085,0.27366763,11277825070,49.734375
11277827642,-1.6941184,13.8448715,0.5886344,11277827642,-0.19303341,-0.90041536,0.27488935,11277827642,49.777344
11277829555,-1.7228323,13.883157,0.4642076,11277829555,-0.17959438,-0.906524,0.27977628,11277829555,49.777344
11277831794,-1.7515461,13.763515,0.4019942,11277831794,-0.16493362,-0.9101892,0.28221974,11277831794,49.777344
11277834032,-1.7850457,13.610375,0.29192436,11277834032,-0.14538592,-0.9138544,0.28344148,11277834032,49.777344
11277836271,-1.8041883,13.53859,0.2440679,11277836271,-0.12461651,-0.91996306,0.28344148,11277836271,49.777344
11277838512,-1.7802601,13.524234,0.17706887,11277838512,-0.10873401,-0.9236283,0.2846632,11277838512,49.777344
11277840751,-1.7467605,13.471592,0.16749759,11277840751,-0.095294975,-0.9272934,0.2846632,11277840751,49.777344
11277842990,-1.7084754,13.471592,0.17228323,11277842990,-0.07819075,-0.9297369,0.2883284,11277842990,49.777344
11277845229,-1.6414764,13.457234,0.10049855,11277845229,-0.06841691,-0.9285152,0.29077184,11277845229,49.691406
11277847677,-1.6845472,13.423735,0.05742774,11277847677,-0.06352998,-0.9285152,0.29443705,11277847677,49.691406
11277849730,-1.6893328,13.423735,0.009571291,11277849730,-0.056199603,-0.9297369,0.2968805,11277849730,49.691406
11277851969,-1.6749759,13.409378,-0.09571291,11277851969,-0.05375614,-0.9236283,0.3005457,11277851969,49.691406
11277854207,-1.6845472,13.27538,-0.07178468,11277854207,-0.05009095,-0.91874135,0.30298916,11277854207,49.691406
11277856446,-1.6558332,13.265809,-0.10049855,11277856446,-0.039095376,-0.91629785,0.30298916,11277856446,49.691406
11277858677,-1.6462619,13.280166,-0.076570325,11277858677,-0.035430185,-0.9077458,0.30665436,11277858677,49.691406
11277860916,-1.6606189,13.155739,-0.014356935,11277860916,-0.029321533,-0.90408057,0.30909783,11277860916,49.691406
11277863155,-1.6223338,13.160524,-0.009571291,11277863155,-0.02687807,-0.89552844,0.31398472,11277863155,49.6875
11277865394,-1.5840486,13.217953,0,11277865394,-0.02687807,-0.8918633,0.31520647,11277865394,49.6875
11277867679,-1.564906,13.055241,0.014356935,11277867679,-0.030543262,-0.88453287,0.31887165,11277867679,49.6875
11277869895,-1.5409778,12.9021,-0.062213387,11277869895,-0.034208454,-0.8723156,0.32253686,11277869895,49.6875
11277872134,-1.4739788,12.906885,-0.11006984,11277872134,-0.029321533,-0.8698721,0.32253686,11277872134,49.6875
11277874373,-1.4883357,12.949956,-0.09092726,11277874373,-0.029321533,-0.86376345,0.32498032,11277874373,49.6875
11277876611,-1.4787644,12.926028,-0.1052842,11277876611,-0.028099801,-0.8564331,0.32742378,11277876611,49.6875
11277878842,-1.4404793,12.997812,-0.16271193,11277878842,-0.028099801,-0.8503244,0.32986724,11277878842,49.6875
11277881080,-1.4404793,13.016955,-0.17706887,11277881080,-0.028099801,-0.8417723,0.32986724,11277881080,49.75
11277883319,-1.4261223,13.103097,-0.22013968,11277883319,-0.03176499,-0.83199847,0.3286455,11277883319,49.75
11277885558,-1.3878372,13.16531,-0.34456646,11277885558,-0.034208454,-0.8246681,0.33108896,11277885558,49.75
11277887819,-1.3591232,13.160524,-0.4211368,11277887819,-0.039095376,-0.8173377,0.33353242,11277887819,49.75
11277890058,-1.3686945,13.131811,-0.47856453,11277890058,-0.040317107,-0.81000733,0.33475417,11277890058,49.75
11277892297,-1.3495519,13.146168,-0.55034924,11277892297,-0.04153884,-0.79412484,0.3371976,11277892297,49.75
11277894536,-1.3351951,13.194024,-0.5886344,11277894536,-0.04520403,-0.7831292,0.3371976,11277894536,49.75
11277896775,-1.3208381,13.098311,-0.6029913,11277896775,-0.04886922,-0.7733554,0.3371976,11277896775,49.75
11277899027,-1.282553,13.083954,-0.57906306,11277899027,-0.058643065,-0.7635816,0.3371976,11277899027,49.75
11277901266,-1.2251252,13.112668,-0.51206404,11277901266,-0.06719518,-0.7489208,0.3408628,11277901266,49.75
11277903505,-1.2299109,13.122239,-0.526421,11277903505,-0.081855945,-0.7367035,0.34208453,11277903505,49.75
11277905744,-1.268196,13.127025,-0.5024927,11277905744,-0.09773844,-0.7244862,0.34330627,11277905744,49.75
11277907970,-1.2299109,13.170095,-0.46899325,11277907970,-0.11362094,-0.7122689,0.34574974,11277907970,49.75
11277910209,-1.2442678,13.174882,-0.51206404,11277910209,-0.13072516,-0.70005155,0.34330627,11277910209,49.75
11277912448,-1.2011969,13.189239,-0.4977071,11277912448,-0.14660765,-0.68661255,0.344528,11277912448,49.75
11277914687,-1.1102697,13.237095,-0.5694918,11277914687,-0.16126843,-0.6719518,0.34330627,11277914687,49.75
11277916926,-1.0863415,13.194024,-0.55034924,11277916926,-0.17470746,-0.6560693,0.344528,11277916926,49.75
11277919184,-1.0624132,13.160524,-0.45942193,11277919184,-0.19058995,-0.6414085,0.3481932,11277919184,49.75
11277921423,-1.0432707,13.150953,-0.45942193,11277921423,-0.20647246,-0.6230826,0.35185838,11277921423,49.75
11277923661,-1.0815558,13.055241,-0.3924229,11277923661,-0.22357668,-0.6059783,0.35185838,11277923661,49.75
11277925900,-1.0576276,13.007384,-0.32542387,11277925900,-0.2406809,-0.5900958,0.3494149,11277925900,49.75
11277928156,-1.0289137,13.088739,-0.33499518,11277928156,-0.25534168,-0.5717699,0.3481932,11277928156,49.75
11277930394,-1.0336994,13.112668,-0.35413775,11277930394,-0.27366763,-0.5534439,0.3481932,11277930394,49.75
11277932633,-1.0480564,13.127025,-0.41156548,11277932633,-0.29810223,-0.53878313,0.35063666,11277932633,49.75
11277934872,-1.1006985,13.131811,-0.45942193,11277934872,-0.31764993,-0.51923543,0.3555236,11277934872,49.742188
11277937111,-1.2059826,13.136597,-0.53599226,11277937111,-0.33475417,-0.50335294,0.35796702,11277937111,49.742188
11277939349,-1.2586247,13.050455,-0.66041905,11277939349,-0.3494149,-0.48747048,0.35918877,11277939349,49.742188
11277941588,-1.282553,13.045669,-0.70348984,11277941588,-0.3652974,-0.4654793,0.3567453,11277941588,49.742188
11277943827,-1.1964114,13.093526,-0.7752745,11277943827,-0.37873647,-0.44959682,0.3555236,11277943827,49.742188
11277946065,-1.1437693,13.079168,-0.8039884,11277946065,-0.39461896,-0.43249258,0.3567453,11277946065,49.742188
11277948318,-1.0863415,13.036098,-0.86141616,11277948318,-0.4129449,-0.4129449,0.36163223,11277948318,49.742188
11277950557,-1.0911272,13.026526,-0.8709874,11277950557,-0.43004912,-0.3933972,0.36774087,11277950557,49.742188
11277952795,-1.1964114,12.926028,-0.8853444,11277952795,-0.45204028,-0.37384954,0.37384954,11277952795,49.76172
11277955034,-1.2729816,12.815958,-0.9906286,11277955034,-0.47403142,-0.35430184,0.37873647,11277955034,49.76172
11277957673,-1.3447664,12.758531,-1.0001999,11277957673,-0.4886922,-0.33475417,0.38240165,11277957673,49.76172
11277959516,-1.3782659,12.777673,-1.0767702,11277959516,-0.51068336,-0.30543262,0.3811799,11277959516,49.76172
11277961755,-1.3399807,12.772887,-1.1246266,11277961755,-0.52534413,-0.2883284,0.3811799,11277961755,49.76172
11277963993,-1.253839,12.815958,-1.1964114,11277963993,-0.53878313,-0.267559,0.38240165,11277963993,49.76172
11277966232,-1.1533405,12.839887,-1.2346965,11277966232,-0.5546656,-0.24678956,0.38606682,11277966232,49.76172
11277968474,-1.1724831,12.849458,-1.2873386,11277968474,-0.5729916,-0.22602014,0.3885103,11277968474,49.76172
11277970713,-1.1102697,12.772887,-1.3256238,11277970713,-0.59131753,-0.20769419,0.3933972,11277970713,49.746094
11277972952,-1.1437693,12.744173,-1.3399807,11277972952,-0.6072,-0.19303341,0.39828414,11277972952,49.746094
11277975191,-1.2251252,12.744173,-1.3160524,11277975191,-0.6218608,-0.17348573,0.39828414,11277975191,49.746094
11277977675,-1.2203395,12.758531,-1.2969099,11277977675,-0.63529986,-0.15027285,0.39706242,11277977675,49.746094
11277979681,-1.2634103,12.705888,-1.3256238,11277979681,-0.65240407,-0.13194689,0.39828414,11277979681,49.746094
11277981920,-1.3160524,12.720245,-1.2969099,11277981920,-0.66950834,-0.10629055,0.39950588,11277981920,49.746094
11277984159,-1.2921243,12.7393875,-1.2777673,11277984159,-0.68294734,-0.0842994,0.40194935,11277984159,49.746094
11277986398,-1.3734802,12.787244,-1.268196,11277986398,-0.6976081,-0.056199603,0.4092797,11277986398,49.746094
11277988638,-1.3686945,12.744173,-1.253839,11277988638,-0.7122689,-0.029321533,0.41416663,11277988638,49.703125
11277990877,-1.3016955,12.763316,-1.2777673,11277990877,-0.7281514,-0.002443461,0.41416663,11277990877,49.703125
11277993115,-1.2969099,12.863814,-1.2969099,11277993115,-0.7501425,0.02076942,0.41050145,11277993115,49.703125
11277995354,-1.1102697,12.873385,-1.2969099,11277995354,-0.7635816,0.04520403,0.4092797,11277995354,49.703125
11277997674,-1.0145568,12.854243,-1.3543376,11277997674,-0.77946407,0.06719518,0.4092797,11277997674,49.703125
11277999843,-0.9619147,12.844672,-1.3495519,11277999843,-0.79290307,0.09040806,0.41172317,11277999843,49.703125
11278002082,-0.9906286,12.758531,-1.268196,11278002082,-0.8038987,0.112399206,0.41783184,11278002082,49.703125
11278004321,-1.0815558,12.753745,-1.134198,11278004321,-0.81245077,0.13683382,0.42149702,11278004321,49.703125
11278006560,-1.1772687,12.839887,-1.052842,11278006560,-0.8246681,0.15882497,0.42149702,11278006560,49.757812
11278008824,-1.2490535,12.892529,-0.98584294,11278008824,-0.8381071,0.18570304,0.41783184,11278008824,49.757812
11278011062,-1.2107682,12.887743,-0.90448695,11278011062,-0.8539896,0.20891592,0.41050145,11278011062,49.757812
11278013301,-1.119841,12.897314,-0.93320084,11278013301,-0.8735373,0.23701571,0.4092797,11278013301,49.757812
11278015540,-1.0624132,12.820744,-0.9092726,11278015540,-0.8894198,0.2602286,0.41050145,11278015540,49.757812
11278017778,-1.0097711,12.859029,-0.9236295,11278017778,-0.9016371,0.27977628,0.4129449,11278017778,49.757812
11278020017,-1.0193424,12.8686,-0.8997013,11278020017,-0.9101892,0.29443705,0.41783184,11278020017,49.757812
11278022256,-1.1676974,12.772887,-0.8327023,11278022256,-0.91874135,0.3213151,0.41783184,11278022256,49.757812
11278024495,-1.1964114,12.710674,-0.74177504,11278024495,-0.9285152,0.34208453,0.4129449,11278024495,49.777344
11278026734,-1.2107682,12.701102,-0.6556334,11278026734,-0.9370673,0.36041048,0.41050145,11278026734,49.777344
11278028980,-1.1964114,12.643675,-0.5886344,11278028980,-0.9443977,0.37995818,0.40561453,11278028980,49.777344
11278031219,-1.0959128,12.624533,-0.4881358,11278031219,-0.95417154,0.39950588,0.40439278,11278031219,49.777344
11278033457,-1.0767702,12.686746,-0.4977071,11278033457,-0.9663888,0.41783184,0.40683624,11278033457,49.777344
11278035696,-1.0624132,12.7393875,-0.47377887,11278035696,-0.9798279,0.4373795,0.408058,11278035696,49.777344
11278037946,-1.0480564,12.68196,-0.44027936,11278037946,-0.99204516,0.45204028,0.41050145,11278037946,49.777344
11278040184,-1.1389836,12.653246,-0.45942193,11278040184,-1.001819,0.4654793,0.408058,11278040184,49.777344
11278042423,-1.0911272,12.610175,-0.44506502,11278042423,-1.0042624,0.48258355,0.40561453,11278042423,49.722656
11278044662,-1.3256238,12.782458,-0.52163535,11278044662,-1.0079277,0.50335294,0.40194935,11278044662,49.722656
11278046901,-0.66999036,12.792029,-0.043070808,11278046901,-1.0030408,0.5216789,0.39584067,11278046901,49.722656
11278049140,-1.0241281,12.892529,-0.5024927,11278049140,-0.9944886,0.5326745,0.37995818,11278049140,49.722656
11278051379,-1.052842,12.921243,-0.37806597,11278051379,-1.0103711,0.5497787,0.3848451,11278051379,49.722656
11278053618,-0.7513463,13.294522,-0.55513483,11278053618,-1.0079277,0.55955255,0.38728857,11278053618,49.722656
11278055857,-1.0432707,12.748959,-0.5072784,11278055857,-1.0238101,0.57910025,0.38973203,11278055857,49.722656
11278058104,-1.4356936,12.897314,0.009571291,11278058104,-1.028697,0.5876524,0.38728857,11278058104,49.722656
11278060343,-1.1533405,12.9547415,-1.2203395,11278060343,-1.0238101,0.59986967,0.37873647,11278060343,49.734375
11278062582,-1.4835501,12.471392,-0.38285163,11278062582,-1.0262536,0.625526,0.37018433,11278062582,49.734375
11278064820,-1.1676974,12.30868,-0.16271193,11278064820,-1.0128145,0.62796944,0.35918877,11278064820,49.734375
11278067059,-1.4596218,13.074383,-1.0480564,11278067059,-1.0115929,0.6585127,0.3640757,11278067059,49.734375
11278069325,-1.3495519,12.859029,0.41156548,11278069325,-1.0189233,0.66706485,0.36774087,11278069325,49.734375
11278071563,-1.0671989,12.653246,-0.05742774,11278071563,-1.0225884,0.6792821,0.36774087,11278071563,49.734375
11278073802,-2.0817556,13.418949,-0.9523434,11278073802,-1.0360274,0.70249504,0.36285394,11278073802,49.734375
11278076041,-1.0959128,12.882957,0.25842485,11278076041,-1.0445796,0.70249504,0.36651915,11278076041,49.734375
11278078271,-1.3782659,13.289737,-0.2009971,11278078271,-1.0433578,0.72082096,0.3567453,11278078271,49.703125
11278080510,-1.3160524,12.878172,-0.5072784,11278080510,-1.0506883,0.72692966,0.36163223,11278080510,49.703125
11278082749,-1.1150553,12.988241,-0.9236295,11278082749,-1.0458013,0.7415904,0.3567453,11278082749,49.703125
11278084988,-1.4835501,13.351951,-0.7848458,11278084988,-1.0360274,0.75625116,0.36163223,11278084988,49.703125
11278087680,-1.3208381,12.993027,0.15314065,11278087680,-1.0323622,0.766025,0.36041048,11278087680,49.703125
11278089476,-1.9142581,13.323236,-0.27756742,11278089476,-1.033584,0.77824235,0.36774087,11278089476,49.703125
11278091715,-1.4596218,13.026526,0.009571291,11278091715,-1.0409144,0.784351,0.37018433,11278091715,49.703125
11278093954,-2.0386848,13.663017,-0.09092726,11278093954,-1.0409144,0.79290307,0.35185838,11278093954,49.703125
11278096193,-1.1533405,13.227524,-0.3924229,11278096193,-1.0421361,0.8002335,0.35063666,11278096193,49.742188
11278098435,-0.9954142,13.442878,0.11006984,11278098435,-1.0482447,0.8063421,0.344528,11278098435,49.742188
11278100674,-1.2586247,13.825729,-0.02871387,11278100674,-1.0494665,0.81000733,0.3555236,11278100674,49.742188
11278102913,-1.2490535,13.351951,0.24885355,11278102913,-1.0409144,0.8222246,0.36285394,11278102913,49.742188
11278105152,-1.3208381,13.088739,-0.06699903,11278105152,-1.033584,0.8210029,0.3640757,11278105152,49.742188
11278107654,-1.6366907,13.294522,0.3062813,11278107654,-1.0311406,0.8405506,0.35430184,11278107654,49.742188
11278109637,-1.5601203,13.27538,0.11006984,11278109637,-1.0213667,0.829555,0.3408628,11278109637,49.742188
11278111876,-1.1006985,13.117454,0.22971097,11278111876,-1.0164797,0.8491027,0.3359759,11278111876,49.742188
11278114114,-1.5936198,13.026526,0.34456646,11278114114,-1.0091494,0.8491027,0.33475417,11278114114,49.726562
11278116353,-1.1629118,13.074383,-0.25842485,11278116353,-1.0042624,0.86376345,0.34208453,11278116353,49.726562
11278118622,-1.3256238,12.935599,0.55513483,11278118622,-0.9944886,0.86742866,0.3481932,11278118622,49.726562
11278120861,-1.4644074,12.97867,0.33020952,11278120861,-0.9896017,0.8723156,0.3408628,11278120861,49.726562
11278123100,-1.3399807,13.256237,0.16749759,11278123100,-0.9896017,0.88453287,0.3371976,11278123100,49.726562
11278125338,-1.430908,13.122239,0.2536392,11278125338,-0.98715824,0.8857546,0.32253686,11278125338,49.726562
11278127641,-1.1772687,13.519448,0.3493521,11278127641,-0.9859365,0.8943067,0.31398472,11278127641,49.726562
11278129810,-1.0145568,13.457234,0.31106696,11278129810,-0.9737192,0.8979719,0.31031954,11278129810,49.726562
11278132049,-0.971486,13.438092,0.19621146,11278132049,-0.9663888,0.90408057,0.312763,11278132049,49.734375
11278134288,-1.0480564,13.351951,0.22492532,11278134288,-0.95539325,0.906524,0.31642818,11278134288,49.734375
11278136527,-1.134198,13.194024,0.3589234,11278136527,-0.9456194,0.9138544,0.31642818,11278136527,49.734375
11278138768,-1.3112668,13.069597,0.35413775,11278138768,-0.93218035,0.91874135,0.31031954,11278138768,49.734375
11278141007,-1.2969099,13.007384,0.3397808,11278141007,-0.91874135,0.9260717,0.29932398,11278141007,49.734375
11278143246,-1.2107682,12.882957,0.47856453,11278143246,-0.906524,0.9334021,0.28955013,11278143246,49.734375
11278145484,-1.1724831,12.878172,0.4833502,11278145484,-0.89919364,0.93584555,0.28344148,11278145484,49.734375
11278147736,-1.0911272,12.930814,0.37806597,11278147736,-0.8906415,0.9431759,0.28344148,11278147736,49.734375
11278149975,-1.1533405,13.01217,0.4881358,11278149975,-0.8857546,0.9468411,0.28588495,11278149975,49.75
11278152213,-1.1916257,13.055241,0.4881358,11278152213,-0.8784242,0.95294976,0.28710666,11278152213,49.75
11278154452,-1.3112668,13.021741,0.4833502,11278154452,-0.8723156,0.956615,0.28344148,11278154452,49.75
11278156691,-1.3639089,13.007384,0.47377887,11278156691,-0.86132,0.9578367,0.27488935,11278156691,49.75
11278158949,-1.3447664,13.064812,0.4977071,11278158949,-0.8503244,0.9615019,0.267559,11278158949,49.75
11278161187,-1.3495519,13.040883,0.57906306,11278161187,-0.8405506,0.96761054,0.26267207,11278161187,49.75
11278163426,-1.2346965,13.055241,0.61734825,11278163426,-0.82711154,0.96883225,0.26267207,11278163426,49.75
11278165665,-1.2442678,13.01217,0.72741807,11278165665,-0.816116,0.97249746,0.2602286,11278165665,49.75
11278167899,-1.3304094,12.9547415,0.7800602,11278167899,-0.80878556,0.97127575,0.2602286,11278167899,49.726562
11278170138,-1.2873386,12.863814,0.90448695,11278170138,-0.8002335,0.9737192,0.26145032,11278170138,49.726562
11278172377,-1.416551,12.959527,0.9762716,11278172377,-0.79290307,0.97494096,0.25778514,11278172377,49.726562
11278174615,-1.3399807,12.959527,0.98584294,11278174615,-0.7806858,0.97494096,0.25289822,11278174615,49.726562
11278176854,-1.3208381,12.897314,1.0480564,11278176854,-0.7770206,0.97494096,0.24678956,11278176854,49.726562
11278179114,-1.2921243,12.873385,1.038485,11278179114,-0.7684685,0.97494096,0.24556783,11278179114,49.726562
11278181353,-1.1964114,12.906885,1.105484,11278181353,-0.75747293,0.9737192,0.24678956,11278181353,49.726562
11278183591,-1.2442678,12.849458,1.1294123,11278183591,-0.7489208,0.9737192,0.24801129,11278183591,49.726562
11278185830,-1.3208381,12.777673,1.1820544,11278185830,-0.7367035,0.97005403,0.24923302,11278185830,49.742188
11278188076,-1.3447664,12.815958,1.1916257,11278188076,-0.7244862,0.9663888,0.24801129,11278188076,49.742188
11278190315,-1.4261223,12.768102,1.2011969,11278190315,-0.7110472,0.96761054,0.24312437,11278190315,49.742188
11278192554,-1.3974084,12.71546,1.2203395,11278192554,-0.6963864,0.9578367,0.23579398,11278192554,49.742188
11278194792,-1.3016955,12.701102,1.1437693,11278194792,-0.68416905,0.9578367,0.23457226,11278194792,49.742188
11278197031,-1.3543376,12.696317,1.2107682,11278197031,-0.6731735,0.95294976,0.23457226,11278197031,49.742188
11278199287,-1.3543376,12.696317,1.1629118,11278199287,-0.6609562,0.9456194,0.23579398,11278199287,49.742188
11278201525,-1.5074782,12.677175,1.0863415,11278201525,-0.6536258,0.9407325,0.23945917,11278201525,49.742188
11278203764,-1.3878372,12.591033,1.1150553,11278203764,-0.6450737,0.93462384,0.24312437,11278203764,49.703125
11278206003,-1.5026926,12.624533,1.1294123,11278206003,-0.63285637,0.9297369,0.23701571,11278206003,49.703125
11278208247,-1.5744773,12.614961,1.1533405,11278208247,-0.6169739,0.9236283,0.23335053,11278208247,49.703125
11278210486,-1.3112668,12.552748,1.1533405,11278210486,-0.6059783,0.91629785,0.22968534,11278210486,49.703125
11278212725,-1.4213367,12.60539,1.1485549,11278212725,-0.5925393,0.9101892,0.23090707,11278212725,49.703125
11278214964,-1.2969099,12.610175,1.105484,11278214964,-0.57787853,0.9053023,0.23579398,11278214964,49.703125
11278217638,-1.2921243,12.471392,1.1150553,11278217638,-0.5717699,0.89919364,0.23823744,11278217638,49.703125
11278219434,-1.416551,12.504891,1.0959128,11278219434,-0.55955255,0.89675015,0.23823744,11278219434,49.703125
11278221673,-1.3830515,12.41875,1.119841,11278221673,-0.5497787,0.893085,0.23945917,11278221673,49.757812
11278223912,-1.4069797,12.366107,1.0911272,11278223912,-0.53878313,0.88453287,0.23701571,11278223912,49.757812
11278226151,-1.4117653,12.294323,1.0863415,11278226151,-0.52290064,0.8784242,0.23457226,11278226151,49.757812
11278228417,-1.3304094,12.232109,1.0767702,11278228417,-0.5045747,0.87109387,0.23457226,11278228417,49.757812
11278230656,-1.268196,12.179467,1.1006985,11278230656,-0.49357912,0.86498517,0.2321288,11278230656,49.757812
11278232895,-1.2299109,12.193824,1.0959128,11278232895,-0.47891834,0.8588765,0.23457226,11278232895,49.757812
11278235134,-1.2442678,12.169896,1.0336994,11278235134,-0.4654793,0.8539896,0.23335053,11278235134,49.757812
11278237643,-1.2346965,12.078969,1.1006985,11278237643,-0.45814893,0.84788096,0.23579398,11278237643,49.757812
11278239602,-1.2155539,12.045469,1.1006985,11278239602,-0.44959682,0.84299403,0.2321288,11278239602,49.726562
11278241841,-1.2059826,12.021541,1.1102697,11278241841,-0.4361578,0.8393288,0.2284636,11278241841,49.726562
11278244080,-1.1676974,12.016755,1.134198,11278244080,-0.42271876,0.8332202,0.22357668,11278244080,49.726562
11278246319,-1.105484,12.074183,1.134198,11278246319,-0.4092797,0.8258898,0.22113322,11278246319,49.726562
11278248579,-1.0480564,12.083755,1.1437693,11278248579,-0.39828414,0.8210029,0.21746802,11278248579,49.726562
11278250818,-1.0576276,12.093326,1.1485549,11278250818,-0.38606682,0.8197812,0.21502456,11278250818,49.726562
11278253057,-1.0719845,12.126825,1.0624132,11278253057,-0.37018433,0.81489426,0.2125811,11278253057,49.726562
11278255296,-1.0959128,12.078969,1.0193424,11278255296,-0.3567453,0.8063421,0.20891592,11278255296,49.726562
11278257637,-1.1629118,11.983255,0.9954142,11278257637,-0.34697145,0.8038987,0.20525073,11278257637,49.76172
11278259783,-1.2155539,11.973684,0.9667004,11278259783,-0.3323107,0.79412484,0.20158553,11278259783,49.76172
11278262022,-1.253839,12.074183,0.9762716,11278262022,-0.3200934,0.79168135,0.2003638,11278262022,49.76172
11278264261,-1.1916257,12.141182,0.9523434,11278264261,-0.30909783,0.784351,0.1966986,11278264261,49.76172
11278266499,-1.2346965,12.179467,0.9667004,11278266499,-0.3005457,0.77946407,0.19181168,11278266499,49.76172
11278268745,-1.1772687,12.289537,0.91405827,11278268745,-0.28955013,0.7733554,0.18936823,11278268745,49.76172
11278270983,-1.2251252,12.313465,0.8805587,11278270983,-0.28344148,0.7696902,0.18936823,11278270983,49.76172
11278273222,-1.268196,12.232109,0.79441714,11278273222,-0.27366763,0.7648033,0.19058995,11278273222,49.76172
11278275461,-1.3160524,12.212967,0.7322037,11278275461,-0.26389378,0.75747293,0.18692477,11278275461,49.73047
11278277701,-1.416551,12.270394,0.7513463,11278277701,-0.2565634,0.75625116,0.18570304,11278277701,49.73047
11278279940,-1.4356936,12.294323,0.6795616,11278279940,-0.25045475,0.7501425,0.18570304,11278279940,49.73047
11278282178,-1.4117653,12.270394,0.71306115,11278282178,-0.23823744,0.7440339,0.18448131,11278282178,49.73047
11278284417,-1.4356936,12.284752,0.6795616,11278284417,-0.23335053,0.73914695,0.18570304,11278284417,49.73047
11278286656,-1.3830515,12.30868,0.6412765,11278286656,-0.22968534,0.73426,0.18692477,11278286656,49.73047
11278288895,-1.3543376,12.222538,0.6029913,11278288895,-0.22479841,0.7293731,0.18936823,11278288895,49.73047
11278291134,-1.416551,12.246467,0.57906306,11278291134,-0.21746802,0.72692966,0.19425514,11278291134,49.73047
11278293373,-1.4261223,12.294323,0.5694918,11278293373,-0.21135938,0.72326446,0.1966986,11278293373,49.726562
11278295612,-1.4739788,12.323036,0.4881358,11278295612,-0.20647246,0.71959925,0.1966986,11278295612,49.726562
11278297861,-1.4596218,12.356536,0.49292147,11278297861,-0.2003638,0.71837753,0.19792034,11278297861,49.726562
11278300100,-1.4548361,12.399607,0.44506502,11278300100,-0.1966986,0.7134906,0.19792034,11278300100,49.726562
11278302339,-1.4261223,12.38525,0.3924229,11278302339,-0.19058995,0.7122689,0.2003638,11278302339,49.726562
11278304577,-1.4117653,12.323036,0.4019942,11278304577,-0.18325958,0.7098254,0.20280726,11278304577,49.726562
11278306816,-1.402194,12.260823,0.3062813,11278306816,-0.17715092,0.7110472,0.20647246,11278306816,49.726562
11278309069,-1.4644074,12.174682,0.3397808,11278309069,-0.16982053,0.7098254,0.21135938,11278309069,49.726562
11278311308,-1.4548361,12.126825,0.29671,11278311308,-0.16371189,0.7110472,0.21135938,11278311308,49.734375
11278313547,-1.4548361,12.074183,0.28235307,11278313547,-0.1563815,0.7110472,0.2125811,11278313547,49.734375
11278315786,-1.4787644,11.983255,0.25842485,11278315786,-0.15027285,0.7122689,0.21380283,11278315786,49.734375
11278318027,-1.4213367,11.988042,0.22492532,11278318027,-0.1441642,0.71593404,0.21380283,11278318027,49.734375
11278320266,-1.4213367,12.069397,0.23449662,11278320266,-0.14172074,0.7147123,0.21746802,11278320266,49.734375
11278322505,-1.4452649,12.050255,0.18185452,11278322505,-0.13683382,0.71593404,0.22235495,11278322505,49.734375
11278324744,-1.4596218,11.992827,0.148355,11278324744,-0.13316862,0.7171558,0.22357668,11278324744,49.734375
11278326983,-1.4500505,12.083755,0.076570325,11278326983,-0.1282817,0.71837753,0.22602014,11278326983,49.734375
11278329243,-1.4691931,12.08854,0.062213387,11278329243,-0.12339478,0.71837753,0.22602014,11278329243,49.71875
11278331482,-1.4404793,12.136396,0.047856454,11278331482,-0.1160644,0.71837753,0.23090707,11278331482,49.71875
11278333721,-1.3734802,12.232109,-0.02871387,11278333721,-0.112399206,0.71837753,0.23090707,11278333721,49.71875
11278335959,-1.3639089,12.193824,-0.062213387,11278335959,-0.10629055,0.71959925,0.23335053,11278335959,49.71875
11278338193,-1.3256238,12.102897,-0.124426775,11278338193,-0.10873401,0.7171558,0.23335053,11278338193,49.71875
11278340431,-1.268196,12.098111,-0.15792629,11278340431,-0.10140363,0.71837753,0.23579398,11278340431,49.71875
11278342670,-1.2873386,12.064611,-0.2009971,11278342670,-0.1001819,0.71837753,0.23823744,11278342670,49.71875
11278344909,-1.3304094,12.007184,-0.15314065,11278344909,-0.09896017,0.72082096,0.23579398,11278344909,49.71875
11278347148,-1.3016955,12.117254,-0.15314065,11278347148,-0.09896017,0.72082096,0.23579398,11278347148,49.734375
11278349401,-1.3112668,12.19861,-0.22492532,11278349401,-0.09773844,0.72082096,0.23579398,11278349401,49.734375
11278351639,-1.2729816,12.203396,-0.2009971,11278351639,-0.1001819,0.72204274,0.23335053,11278351639,49.734375
11278353878,-1.1676974,12.246467,-0.2536392,11278353878,-0.09896017,0.72082096,0.23335053,11278353878,49.734375
11278356117,-1.1724831,12.246467,-0.33499518,11278356117,-0.096516706,0.72082096,0.23579398,11278356117,49.734375
11278358367,-1.1629118,12.212967,-0.3062813,11278358367,-0.09773844,0.72204274,0.23579398,11278358367,49.734375
11278360606,-1.134198,12.19861,-0.3493521,11278360606,-0.09773844,0.72326446,0.23579398,11278360606,49.734375
11278362845,-1.1676974,12.1459675,-0.3397808,11278362845,-0.096516706,0.7244862,0.23823744,11278362845,49.734375
11278365084,-1.1437693,12.083755,-0.31585258,11278365084,-0.09407325,0.72692966,0.23579398,11278365084,49.71875
11278367678,-1.0959128,12.074183,-0.27756742,11278367678,-0.09896017,0.7293731,0.23335053,11278367678,49.71875
11278369567,-1.1150553,12.117254,-0.28713873,11278369567,-0.103847094,0.7305948,0.22968534,11278369567,49.71875
11278371806,-1.038485,12.136396,-0.32542387,11278371806,-0.103847094,0.7293731,0.22724187,11278371806,49.71875
11278374045,-0.9954142,12.179467,-0.31106696,11278374045,-0.10995574,0.7281514,0.22724187,11278374045,49.71875
11278376284,-1.0001999,12.179467,-0.40677986,11278376284,-0.11362094,0.7281514,0.2284636,11278376284,49.71875
11278378540,-1.0145568,12.136396,-0.41156548,11278378540,-0.1160644,0.7305948,0.22724187,11278378540,49.71875
11278380779,-1.0576276,12.117254,-0.44027936,11278380779,-0.11728613,0.7293731,0.22724187,11278380779,49.71875
11278383018,-1.1246266,12.12204,-0.42592242,11278383018,-0.1160644,0.7318166,0.22479841,11278383018,49.76953
11278385257,-1.1485549,12.083755,-0.41156548,11278385257,-0.10995574,0.73548174,0.22602014,11278385257,49.76953
11278387680,-1.1437693,12.035898,-0.42592242,11278387680,-0.10995574,0.7440339,0.22479841,11278387680,49.76953
11278389733,-1.1485549,12.045469,-0.44027936,11278389733,-0.10873401,0.75136423,0.21991149,11278389733,49.76953
11278391972,-1.1102697,12.01197,-0.4546363,11278391972,-0.11484267,0.75502944,0.21746802,11278391972,49.76953
11278394210,-1.0911272,12.064611,-0.4977071,11278394210,-0.12339478,0.75869465,0.21746802,11278394210,49.76953
11278396449,-1.0336994,12.069397,-0.55034924,11278396449,-0.1282817,0.7635816,0.21868975,11278396449,49.76953
11278398706,-1.0480564,12.016755,-0.6364908,11278398706,-0.12950343,0.766025,0.21991149,11278398706,49.76953
11278400944,-1.0432707,11.964113,-0.66999036,11278400944,-0.13194689,0.77091193,0.21868975,11278400944,49.753906
11278403183,-1.0911272,12.0023985,-0.7322037,11278403183,-0.13316862,0.7770206,0.21868975,11278403183,49.753906
11278405422,-1.1389836,11.97847,-0.75613195,11278405422,-0.13927728,0.7806858,0.21746802,11278405422,49.753906
11278407688,-1.105484,11.964113,-0.7800602,11278407688,-0.14782938,0.7831292,0.21746802,11278407688,49.753906
11278409904,-1.0959128,11.949757,-0.7609176,11278409904,-0.15027285,0.7855727,0.21502456,11278409904,49.753906
11278412143,-1.1294123,11.911471,-0.7465607,11278412143,-0.16249016,0.79045963,0.21746802,11278412143,49.753906
11278414382,-1.1102697,11.873186,-0.6939186,11278414382,-0.172264,0.79779,0.21624629,11278414382,49.753906
11278416620,-1.0767702,11.854043,-0.71306115,11278416620,-0.17715092,0.79901177,0.21746802,11278416620,49.753906
11278418866,-1.0815558,11.777473,-0.6795616,11278418866,-0.18570304,0.8026769,0.21624629,11278418866,49.703125
11278421105,-1.0480564,11.729616,-0.6556334,11278421105,-0.19792034,0.81000733,0.21502456,11278421105,49.703125
11278423344,-1.0001999,11.767901,-0.6412765,11278423344,-0.20647246,0.81122905,0.21380283,11278423344,49.703125
11278425582,-0.9954142,11.763116,-0.6029913,11278425582,-0.21013765,0.81489426,0.21502456,11278425582,49.703125
11278427843,-1.0289137,11.734403,-0.5982057,11278427843,-0.21746802,0.8222246,0.2125811,11278427843,49.703125
11278430082,-0.9906286,11.710474,-0.5838487,11278430082,-0.22602014,0.82711154,0.21135938,11278430082,49.703125
11278432320,-1.0049855,11.720045,-0.5886344,11278432320,-0.23457226,0.82711154,0.21013765,11278432320,49.703125
11278434559,-1.038485,11.753545,-0.57906306,11278434559,-0.24312437,0.829555,0.20647246,11278434559,49.703125
11278436798,-1.0049855,11.75833,-0.5886344,11278436798,-0.25167647,0.8344419,0.204029,11278436798,49.742188
11278439046,-1.0193424,11.672189,-0.6029913,11278439046,-0.26145032,0.8393288,0.204029,11278439046,49.742188
11278441285,-0.9906286,11.672189,-0.5694918,11278441285,-0.2687807,0.8417723,0.2003638,11278441285,49.742188
11278443523,-0.9667004,11.782259,-0.60777694,11278443523,-0.27366763,0.84788096,0.2003638,11278443523,49.742188
11278445762,-0.9906286,11.743974,-0.6364908,11278445762,-0.2883284,0.8491027,0.19914207,11278445762,49.742188
11278447994,-0.9762716,11.676974,-0.6795616,11278447994,-0.29810223,0.85154617,0.1966986,11278447994,49.742188
11278450233,-0.9667004,11.676974,-0.7465607,11278450233,-0.30909783,0.8564331,0.19425514,11278450233,49.742188
11278452472,-0.9762716,11.662618,-0.7848458,11278452472,-0.3213151,0.86009824,0.19303341,11278452472,49.742188
11278454711,-0.94277215,11.60519,-0.8135597,11278454711,-0.33353242,0.86620694,0.18936823,11278454711,49.76953
11278456950,-0.89013004,11.576476,-0.8470592,11278456950,-0.3408628,0.8686504,0.18692477,11278456950,49.76953
11278459210,-0.89491564,11.576476,-0.85184485,11278459210,-0.35063666,0.8723156,0.18692477,11278459210,49.76953
11278461449,-0.8709874,11.60519,-0.8470592,11278461449,-0.36163223,0.874759,0.18448131,11278461449,49.76953
11278463688,-0.7609176,11.624332,-0.8853444,11278463688,-0.37384954,0.8784242,0.17959438,11278463688,49.76953
11278465926,-0.75613195,11.653047,-0.9379865,11278465926,-0.38728857,0.8857546,0.17470746,11278465926,49.76953
11278468158,-0.7178468,11.667403,-1.0145568,11278468158,-0.40317106,0.8894198,0.172264,11278468158,49.76953
11278470396,-0.71306115,11.710474,-1.0767702,11278470396,-0.41538838,0.8943067,0.17348573,11278470396,49.76953
11278472635,-0.7513463,11.739188,-1.1389836,11278472635,-0.42760566,0.8979719,0.1685988,11278472635,49.73047
11278474874,-0.8662018,11.734403,-1.1629118,11278474874,-0.43982297,0.9016371,0.16615535,11278474874,49.73047
11278477113,-0.8470592,11.696117,-1.1533405,11278477113,-0.45081854,0.906524,0.16126843,11278477113,49.73047
11278479368,-0.79920274,11.6339035,-1.1581261,11278479368,-0.4642576,0.91507614,0.15515977,11278479368,49.73047
11278481607,-0.80877405,11.619547,-1.1581261,11278481607,-0.4728097,0.91507614,0.14538592,11278481607,49.73047
11278483846,-0.6987042,11.667403,-1.1150553,11278483846,-0.4801401,0.9138544,0.13927728,11278483846,49.73047
11278486085,-0.7465607,11.705688,-1.052842,11278486085,-0.49235737,0.91751957,0.13805555,11278486085,49.73047
11278488321,-0.7752745,11.710474,-0.971486,11278488321,-0.50335294,0.91996306,0.13683382,11278488321,49.73047
11278490560,-0.82313097,11.729616,-0.9762716,11278490560,-0.5180137,0.9224065,0.13683382,11278490560,49.710938
11278492798,-0.8805587,11.734403,-0.9619147,11278492798,-0.5314528,0.9211848,0.13194689,11278492798,49.710938
11278495037,-0.91405827,11.653047,-0.9379865,11278495037,-0.54611355,0.9260717,0.12339478,11278495037,49.710938
11278497673,-0.9092726,11.600404,-0.94755775,11278497673,-0.5546656,0.9297369,0.119729586,11278497673,49.710938
11278499539,-0.8709874,11.60519,-0.9810573,11278499539,-0.55955255,0.9297369,0.1160644,11278499539,49.710938
11278501778,-0.83748794,11.552547,-0.9284152,11278501778,-0.5656612,0.93218035,0.11484267,11278501778,49.710938
11278504017,-0.8757731,11.514262,-0.8709874,11278504017,-0.5705481,0.9334021,0.11484267,11278504017,49.710938
11278506256,-0.8853444,11.504691,-0.8327023,11278506256,-0.5766568,0.93828905,0.111177474,11278506256,49.710938
11278508509,-0.9667004,11.41855,-0.7848458,11278508509,-0.5839872,0.93951076,0.10873401,11278508509,49.726562
11278510748,-1.0145568,11.3371935,-0.8135597,11278510748,-0.59498274,0.9407325,0.103847094,11278510748,49.726562
11278512986,-1.0145568,11.346765,-0.82313097,11278512986,-0.59986967,0.9419542,0.09896017,11278512986,49.726562
11278515225,-1.038485,11.327622,-0.8327023,11278515225,-0.6047566,0.9419542,0.09773844,11278515225,49.726562
11278517681,-1.0432707,11.3371935,-0.8662018,11278517681,-0.61208695,0.9407325,0.096516706,11278517681,49.726562
11278519710,-1.0336994,11.327622,-0.8757731,11278519710,-0.61819565,0.9431759,0.096516706,11278519710,49.726562
11278521949,-1.0624132,11.332408,-0.89013004,11278521949,-0.6206391,0.94806284,0.09407325,11278521949,49.726562
11278524188,-1.0576276,11.3371935,-0.8853444,11278524188,-0.6267477,0.9456194,0.09040806,11278524188,49.726562
11278526427,-1.0097711,11.255837,-0.8662018,11278526427,-0.63407815,0.9443977,0.08674286,11278526427,49.726562
11278528654,-0.9906286,11.212767,-0.8327023,11278528654,-0.6377433,0.9492846,0.0842994,11278528654,49.726562
11278530893,-0.9810573,11.179267,-0.82313097,11278530893,-0.6401868,0.9468411,0.08307768,11278530893,49.726562
11278533132,-0.9906286,11.126625,-0.79441714,11278533132,-0.65118235,0.94806284,0.0842994,11278533132,49.726562
11278535371,-1.0097711,11.064412,-0.7752745,11278535371,-0.65484756,0.95294976,0.081855945,11278535371,49.726562
11278537644,-1.0241281,11.064412,-0.7513463,11278537644,-0.657291,0.95294976,0.081855945,11278537644,49.726562
11278539860,-1.0241281,11.112268,-0.7513463,11278539860,-0.6658431,0.95172805,0.07574729,11278539860,49.726562
11278542099,-1.0001999,11.140983,-0.7178468,11278542099,-0.66828656,0.95172805,0.06963864,11278542099,49.726562
11278544338,-0.971486,11.155339,-0.72263247,11278544338,-0.675617,0.9505063,0.06719518,11278544338,49.75
11278546576,-0.94755775,11.131411,-0.7369894,11278546576,-0.6780604,0.95294976,0.06841691,11278546576,49.75
11278548836,-0.9906286,11.097912,-0.7465607,11278548836,-0.6817256,0.9505063,0.06719518,11278548836,49.75
11278551075,-1.038485,11.064412,-0.74177504,11278551075,-0.68294734,0.9443977,0.064751714,11278551075,49.75
11278553314,-1.0480564,10.925629,-0.7704889,11278553314,-0.68539083,0.9443977,0.062308256,11278553314,49.75
11278555552,-1.0719845,10.772488,-0.7369894,11278555552,-0.68783426,0.9419542,0.056199603,11278555552,49.75
11278557805,-1.0049855,10.724631,-0.6843473,11278557805,-0.68661255,0.93951076,0.05131268,11278557805,49.75
11278560044,-0.98584294,10.734202,-0.6269195,11278560044,-0.68539083,0.9370673,0.05009095,11278560044,49.75
11278562282,-0.95712906,10.71506,-0.6364908,11278562282,-0.689056,0.93218035,0.04886922,11278562282,49.757812
11278564521,-0.9667004,10.753345,-0.5886344,11278564521,-0.6939429,0.9309586,0.04642576,11278564521,49.757812
11278566760,-0.9667004,10.872986,-0.5982057,11278566760,-0.6988298,0.9272934,0.04153884,11278566760,49.757812
11278569000,-0.9810573,10.839486,-0.5838487,11278569000,-0.7086037,0.91996306,0.036651913,11278569000,49.757812
11278571239,-0.94755775,10.839486,-0.6029913,11278571239,-0.7134906,0.9126327,0.030543262,11278571239,49.757812
11278573478,-0.9092726,10.863415,-0.60777694,11278573478,-0.71837753,0.9077458,0.02321288,11278573478,49.757812
11278575717,-0.91405827,10.820344,-0.59342,11278575717,-0.72204274,0.90285885,0.019547688,11278575717,49.757812
11278577970,-0.9379865,10.772488,-0.55513483,11278577970,-0.72082096,0.8918633,0.018325957,11278577970,49.757812
11278580209,-0.9523434,10.796415,-0.4546363,11278580209,-0.7171558,0.8881981,0.014660766,11278580209,49.757812
11278582448,-0.9954142,10.777273,-0.43070808,11278582448,-0.72082096,0.88331115,0.013439035,11278582448,49.757812
11278584686,-1.0432707,10.71506,-0.3589234,11278584686,-0.72326446,0.8784242,0.007330383,11278584686,49.757812
11278586925,-0.9810573,10.748559,-0.35413775,11278586925,-0.7293731,0.87109387,0.0012217305,11278586925,49.757812
11278589163,-0.9667004,10.6815605,-0.35413775,11278589163,-0.7305948,0.86498517,-0.0036651916,11278589163,49.757812
11278591402,-1.0001999,10.628919,-0.2632105,11278591402,-0.73548174,0.86132,-0.0036651916,11278591402,49.757812
11278593641,-0.9810573,10.671989,-0.28713873,11278593641,-0.73792523,0.8539896,-0.0036651916,11278593641,49.757812
11278595880,-1.0815558,10.686346,-0.2105684,11278595880,-0.7367035,0.85154617,-0.0036651916,11278595880,49.757812
11278598130,-1.1485549,10.648061,-0.18664017,11278598130,-0.73426,0.84421575,-0.0061086523,11278598130,49.742188
11278600369,-1.1724831,10.676775,-0.16749759,11278600369,-0.73548174,0.8368854,-0.008552114,11278600369,49.742188
11278602608,-1.1676974,10.705488,-0.21535404,11278602608,-0.73548174,0.83077675,-0.014660766,11278602608,49.742188
11278604847,-1.1629118,10.734202,-0.15314065,11278604847,-0.73548174,0.8246681,-0.014660766,11278604847,49.742188
11278607085,-1.1581261,10.748559,-0.11964113,11278607085,-0.7367035,0.8185594,-0.014660766,11278607085,49.742188
11278609340,-1.2011969,10.719846,-0.11485548,11278609340,-0.73548174,0.81489426,-0.010995574,11278609340,49.742188
11278611578,-1.253839,10.619347,-0.1052842,11278611578,-0.7330383,0.81000733,-0.009773844,11278611578,49.742188
11278613817,-1.2969099,10.537991,-0.09571291,11278613817,-0.7293731,0.8051204,-0.010995574,11278613817,49.742188
11278616056,-1.3304094,10.557134,-0.062213387,11278616056,-0.7244862,0.79779,-0.012217305,11278616056,49.79297
11278618305,-1.2394822,10.561919,-0.06699903,11278618305,-0.72082096,0.79168135,-0.013439035,11278618305,49.79297
11278620544,-1.1964114,10.600204,-0.047856454,11278620544,-0.7134906,0.784351,-0.017104227,11278620544,49.79297
11278622783,-1.1533405,10.628919,-0.05742774,11278622783,-0.7098254,0.77946407,-0.013439035,11278622783,49.79297
11278625022,-1.1772687,10.600204,-0.09092726,11278625022,-0.70738196,0.7733554,-0.010995574,11278625022,49.79297
11278627645,-1.2059826,10.600204,-0.11006984,11278627645,-0.7049385,0.7635816,-0.008552114,11278627645,49.79297
11278629488,-1.2346965,10.643275,-0.12921242,11278629488,-0.7012733,0.75502944,-0.004886922,11278629488,49.79297
11278631727,-1.3016955,10.628919,-0.12921242,11278631727,-0.7012733,0.75136423,-0.009773844,11278631727,49.79297
11278633965,-1.268196,10.600204,-0.13399807,11278633965,-0.6951646,0.7452556,-0.012217305,11278633965,49.70703
11278636204,-1.2346965,10.619347,-0.13399807,11278636204,-0.6939429,0.73426,-0.013439035,11278636204,49.70703
11278638466,-1.18684,10.60499,-0.11485548,11278638466,-0.689056,0.7257079,-0.013439035,11278638466,49.70703
11278640705,-1.1772687,10.652846,-0.0526421,11278640705,-0.68416905,0.7147123,-0.012217305,11278640705,49.70703
11278642943,-1.2107682,10.686346,-0.02871387,11278642943,-0.68783426,0.7098254,-0.010995574,11278642943,49.70703
11278645182,-1.2873386,10.700703,0.043070808,11278645182,-0.68783426,0.70005155,-0.008552114,11278645182,49.70703
11278647642,-1.3112668,10.686346,0.09571291,11278647642,-0.68783426,0.6927212,-0.007330383,11278647642,49.70703
11278649671,-1.3112668,10.724631,0.07178468,11278649671,-0.6914995,0.68539083,-0.008552114,11278649671,49.70703
11278651910,-1.3160524,10.724631,0.124426775,11278651910,-0.689056,0.6743952,-0.010995574,11278651910,49.757812
11278654149,-1.2442678,10.734202,0.148355,11278654149,-0.68783426,0.6658431,-0.008552114,11278654149,49.757812
11278656388,-1.2394822,10.724631,0.19142582,11278656388,-0.68783426,0.6536258,-0.007330383,11278656388,49.757812
11278658620,-1.268196,10.633704,0.22971097,11278658620,-0.68783426,0.6450737,-0.0036651916,11278658620,49.757812
11278660859,-1.3064811,10.590633,0.23928227,11278660859,-0.68539083,0.63163465,-0.0012217305,11278660859,49.757812
11278663098,-1.3399807,10.57149,0.28235307,11278663098,-0.68661255,0.6218608,0,11278663098,49.757812
11278665336,-1.3495519,10.5284195,0.35413775,11278665336,-0.68416905,0.61086524,0,11278665336,49.757812
11278667643,-1.3543376,10.581061,0.3684947,11278667643,-0.6805039,0.6010914,-0.0012217305,11278667643,49.757812
11278669836,-1.3064811,10.63849,0.4019942,11278669836,-0.6817256,0.5925393,-0.0036651916,11278669836,49.757812
11278672074,-1.2873386,10.6815605,0.43070808,11278672074,-0.68294734,0.58276546,-0.0012217305,11278672074,49.757812
11278674313,-1.2969099,10.719846,0.4354937,11278674313,-0.6805039,0.5742133,0.002443461,11278674313,49.757812
11278676552,-1.3208381,10.734202,0.4019942,11278676552,-0.6817256,0.56321776,0.0061086523,11278676552,49.757812
11278678785,-1.3686945,10.705488,0.4642076,11278678785,-0.6792821,0.5546656,0.008552114,11278678785,49.757812
11278681024,-1.402194,10.652846,0.44027936,11278681024,-0.67073005,0.5412266,0.010995574,11278681024,49.757812
11278683263,-1.416551,10.614561,0.41156548,11278683263,-0.66706485,0.5363397,0.009773844,11278683263,49.757812
11278685502,-1.3974084,10.600204,0.4546363,11278685502,-0.6609562,0.52412236,0.010995574,11278685502,49.757812
11278687760,-1.3495519,10.633704,0.44985065,11278687760,-0.65240407,0.5143485,0.012217305,11278687760,49.80078
11278689999,-1.4069797,10.648061,0.4546363,11278689999,-0.64996064,0.5045747,0.017104227,11278689999,49.80078
11278692238,-1.430908,10.667203,0.4642076,11278692238,-0.64751714,0.49235737,0.021991149,11278692238,49.80078
11278694477,-1.5026926,10.700703,0.44985065,11278694477,-0.6462954,0.4813618,0.029321533,11278694477,49.80078
11278696715,-1.5409778,10.6815605,0.4019942,11278696715,-0.643852,0.47158796,0.03176499,11278696715,49.80078
11278698950,-1.5266209,10.652846,0.39720857,11278698950,-0.6377433,0.4605924,0.03176499,11278698950,49.80078
11278701188,-1.4787644,10.6815605,0.3493521,11278701188,-0.62796944,0.4447099,0.03176499,11278701188,49.80078
11278703427,-1.4452649,10.71506,0.33499518,11278703427,-0.61819565,0.43004912,0.035430185,11278703427,49.80078
11278705666,-1.416551,10.671989,0.3397808,11278705666,-0.6084218,0.4166101,0.040317107,11278705666,49.746094
11278707921,-1.4261223,10.633704,0.3589234,11278707921,-0.59742624,0.40317106,0.047647487,11278707921,49.746094
11278710160,-1.5266209,10.595419,0.4354937,11278710160,-0.59131753,0.3885103,0.05375614,11278710160,49.746094
11278712398,-1.550549,10.576276,0.4546363,11278712398,-0.5876524,0.376293,0.057421334,11278712398,49.746094
11278714637,-1.579263,10.561919,0.5168497,11278714637,-0.5815437,0.36163223,0.057421334,11278714637,49.746094
11278716876,-1.564906,10.609776,0.4977071,11278716876,-0.5729916,0.3481932,0.061086524,11278716876,49.746094
11278719121,-1.5266209,10.619347,0.46899325,11278719121,-0.5644395,0.33353242,0.06352998,11278719121,49.746094
11278721360,-1.5170496,10.537991,0.43070808,11278721360,-0.5571091,0.3213151,0.06963864,11278721360,49.746094
11278723599,-1.5553347,10.509277,0.41635114,11278723599,-0.548557,0.3042109,0.07574729,11278723599,49.757812
11278725838,-1.564906,10.475778,0.4211368,11278725838,-0.535118,0.2919936,0.08552113,11278725838,49.757812
11278728099,-1.6127625,10.394422,0.43070808,11278728099,-0.5216789,0.27977628,0.087964594,11278728099,49.757812
11278730338,-1.6510476,10.322637,0.46899325,11278730338,-0.51068336,0.26511553,0.089186326,11278730338,49.757812
11278732577,-1.6175481,10.375279,0.4881358,11278732577,-0.5021312,0.25411993,0.09162979,11278732577,49.757812
11278734816,-1.5601203,10.408778,0.5312066,11278734816,-0.49480084,0.2406809,0.09285152,11278734816,49.757812
11278737055,-1.5266209,10.403993,0.5407779,11278737055,-0.48991394,0.2284636,0.096516706,11278737055,49.757812
11278739290,-1.5026926,10.41835,0.4977071,11278739290,-0.48258355,0.21991149,0.105068825,11278739290,49.757812
11278741528,-1.5074782,10.442278,0.52163535,11278741528,-0.47525316,0.20525073,0.111177474,11278741528,49.76172
11278743767,-1.5170496,10.470992,0.47856453,11278743767,-0.47525316,0.19425514,0.11484267,11278743767,49.76172
11278746006,-1.5122639,10.442278,0.4546363,11278746006,-0.46914452,0.18203785,0.118507855,11278746006,49.76172
11278748262,-1.5314065,10.375279,0.44506502,11278748262,-0.46181414,0.17592919,0.119729586,11278748262,49.76172
11278750500,-1.4931214,10.30828,0.44506502,11278750500,-0.44837508,0.16493362,0.12461651,11278750500,49.76172
11278752739,-1.4691931,10.222138,0.45942193,11278752739,-0.43982297,0.15515977,0.12705997,11278752739,49.76172
11278754978,-1.4548361,10.202995,0.52163535,11278754978,-0.43249258,0.14782938,0.13072516,11278754978,49.76172
11278757637,-1.4548361,10.269995,0.52163535,11278757637,-0.42760566,0.13927728,0.13683382,11278757637,49.76172
11278759457,-1.4739788,10.289138,0.5455636,11278759457,-0.42760566,0.13316862,0.14294247,11278759457,49.722656
11278761695,-1.4596218,10.226924,0.55513483,11278761695,-0.42638394,0.1282817,0.1441642,11278761695,49.722656
11278763934,-1.4691931,10.246066,0.5312066,11278763934,-0.42394048,0.11728613,0.14660765,11278763934,49.722656
11278766173,-1.4739788,10.246066,0.5312066,11278766173,-0.4202753,0.10873401,0.14782938,11278766173,49.722656
11278768417,-1.4213367,10.226924,0.5599205,11278768417,-0.4166101,0.09773844,0.15149458,11278768417,49.722656
11278770656,-1.402194,10.188639,0.5168497,11278770656,-0.4092797,0.09162979,0.1563815,11278770656,49.722656
11278772895,-1.4213367,10.193424,0.5407779,11278772895,-0.40561453,0.0842994,0.1600467,11278772895,49.722656
11278775134,-1.4356936,10.2317095,0.5407779,11278775134,-0.39950588,0.07574729,0.16371189,11278775134,49.722656
11278777642,-1.4404793,10.289138,0.56470615,11278777642,-0.39950588,0.07086037,0.1685988,11278777642,49.757812
11278779625,-1.4404793,10.241281,0.5312066,11278779625,-0.39706242,0.064751714,0.17104226,11278779625,49.757812
11278781864,-1.4261223,10.169497,0.4881358,11278781864,-0.39706242,0.05497787,0.172264,11278781864,49.757812
11278784102,-1.4261223,10.188639,0.4546363,11278784102,-0.3933972,0.04642576,0.17715092,11278784102,49.757812
11278786341,-1.4117653,10.226924,0.42592242,11278786341,-0.3885103,0.043982297,0.18081611,11278786341,49.757812
11278788581,-1.4500505,10.155139,0.3493521,11278788581,-0.38728857,0.039095376,0.18570304,11278788581,49.757812
11278790820,-1.4261223,10.131211,0.28713873,11278790820,-0.38240165,0.030543262,0.19058995,11278790820,49.757812
11278793059,-1.3830515,10.112068,0.22971097,11278793059,-0.37751472,0.02443461,0.19303341,11278793059,49.757812
11278795298,-1.3926228,10.092926,0.22492532,11278795298,-0.376293,0.018325957,0.19792034,11278795298,49.777344
11278797674,-1.4117653,10.083355,0.18664017,11278797674,-0.37384954,0.012217305,0.19792034,11278797674,49.777344
11278799797,-1.402194,10.116854,0.18664017,11278799797,-0.37140608,0.009773844,0.204029,11278799797,49.777344
11278802036,-1.4069797,10.078569,0.13878371,11278802036,-0.3640757,0.002443461,0.21013765,11278802036,49.777344
11278804274,-1.4261223,10.001999,0.17228323,11278804274,-0.36285394,-0.004886922,0.21380283,11278804274,49.777344
11278806513,-1.3878372,10.001999,0.13878371,11278806513,-0.35918877,-0.009773844,0.21624629,11278806513,49.777344
11278808765,-1.4069797,9.963714,0.124426775,11278808765,-0.35308012,-0.017104227,0.21991149,11278808765,49.777344
11278811004,-1.4213367,9.973285,0.12921242,11278811004,-0.35063666,-0.029321533,0.22479841,11278811004,49.777344
11278813243,-1.3734802,10.006784,0.16749759,11278813243,-0.34697145,-0.030543262,0.22724187,11278813243,49.722656
11278815482,-1.3782659,10.006784,0.19621146,11278815482,-0.3408628,-0.034208454,0.2321288,11278815482,49.722656
11278817726,-1.416551,9.939785,0.19621146,11278817726,-0.3371976,-0.039095376,0.23457226,11278817726,49.722656
11278819965,-1.3878372,9.939785,0.2009971,11278819965,-0.32986724,-0.04886922,0.2406809,11278819965,49.722656
11278822204,-1.3782659,9.949356,0.2009971,11278822204,-0.3286455,-0.05131268,0.24312437,11278822204,49.722656
11278824443,-1.3926228,9.9015,0.20578274,11278824443,-0.32253686,-0.05375614,0.2443461,11278824443,49.722656
11278826681,-1.3830515,9.8727865,0.18664017,11278826681,-0.31398472,-0.058643065,0.24801129,11278826681,49.722656
11278828919,-1.3686945,9.839287,0.18664017,11278828919,-0.30665436,-0.06352998,0.25045475,11278828919,49.722656
11278831157,-1.3878372,9.738789,0.19142582,11278831157,-0.2968805,-0.06841691,0.25289822,11278831157,49.76172
11278833396,-1.3495519,9.705289,0.25842485,11278833396,-0.28710666,-0.07574729,0.25534168,11278833396,49.76172
11278835635,-1.3016955,9.767502,0.23928227,11278835635,-0.27977628,-0.07819075,0.25534168,11278835635,49.76172
11278837888,-1.3016955,9.757931,0.24885355,11278837888,-0.27366763,-0.080634214,0.2565634,11278837888,49.76172
11278840127,-1.2394822,9.767502,0.27756742,11278840127,-0.26511553,-0.08674286,0.25900686,11278840127,49.76172
11278842366,-1.2155539,9.786645,0.2632105,11278842366,-0.25900686,-0.09285152,0.2602286,11278842366,49.76172
11278844605,-1.268196,9.74836,0.33499518,11278844605,-0.24923302,-0.096516706,0.26511553,11278844605,49.76172
11278846844,-1.2634103,9.690931,0.27756742,11278846844,-0.23945917,-0.105068825,0.26633725,11278846844,49.76172
11278849078,-1.268196,9.68136,0.22971097,11278849078,-0.2321288,-0.10629055,0.267559,11278849078,49.746094
11278851317,-1.268196,9.638289,0.25842485,11278851317,-0.22357668,-0.10873401,0.267559,11278851317,49.746094
11278853555,-1.253839,9.595219,0.20578274,11278853555,-0.21868975,-0.111177474,0.267559,11278853555,49.746094
11278855794,-1.2586247,9.571291,0.2440679,11278855794,-0.20891592,-0.112399206,0.2687807,11278855794,49.746094
11278858049,-1.2394822,9.547362,0.2009971,11278858049,-0.20280726,-0.119729586,0.27000242,11278858049,49.746094
11278860287,-1.253839,9.533006,0.26799613,11278860287,-0.1966986,-0.12095132,0.27000242,11278860287,49.746094
11278862526,-1.2394822,9.49472,0.21535404,11278862526,-0.18936823,-0.12339478,0.27000242,11278862526,49.746094
11278864765,-1.2394822,9.504292,0.23449662,11278864765,-0.18081611,-0.12583824,0.27366763,11278864765,49.746094
11278867004,-1.2203395,9.52822,0.25842485,11278867004,-0.17592919,-0.1282817,0.2724459,11278867004,49.71875
11278869255,-1.2059826,9.571291,0.22492532,11278869255,-0.172264,-0.1282817,0.2724459,11278869255,49.71875
11278871494,-1.2059826,9.614362,0.23928227,11278871494,-0.16493362,-0.12705997,0.2724459,11278871494,49.71875
11278873732,-1.18684,9.628718,0.22013968,11278873732,-0.1600467,-0.13194689,0.27366763,11278873732,49.71875
11278875971,-1.1772687,9.571291,0.22492532,11278875971,-0.15760323,-0.13072516,0.2761111,11278875971,49.71875
11278878224,-1.1964114,9.533006,0.23449662,11278878224,-0.15149458,-0.13194689,0.2773328,11278878224,49.71875
11278880462,-1.2299109,9.504292,0.22013968,11278880462,-0.14660765,-0.12950343,0.2773328,11278880462,49.71875
11278882701,-1.2107682,9.432507,0.23449662,11278882701,-0.14049901,-0.12950343,0.2773328,11278882701,49.71875
11278884940,-1.1629118,9.45165,0.2105684,11278884940,-0.13316862,-0.13439035,0.27855456,11278884940,49.742188
11278887679,-1.1437693,9.49472,0.22013968,11278887679,-0.13072516,-0.13194689,0.2773328,11278887679,49.742188
11278889429,-1.0911272,9.52822,0.22013968,11278889429,-0.12339478,-0.13072516,0.2773328,11278889429,49.742188
11278891667,-1.0815558,9.552148,0.22492532,11278891667,-0.12217305,-0.12950343,0.27977628,11278891667,49.742188
11278893906,-1.0719845,9.52822,0.17706887,11278893906,-0.119729586,-0.12950343,0.27855456,11278893906,49.742188
11278896145,-1.0480564,9.523434,0.148355,11278896145,-0.1160644,-0.1282817,0.27855456,11278896145,49.742188
11278898377,-1.0576276,9.518648,0.11485548,11278898377,-0.11362094,-0.12339478,0.27488935,11278898377,49.742188
11278900616,-1.0289137,9.489935,0.06699903,11278900616,-0.111177474,-0.12217305,0.27366763,11278900616,49.742188
11278902855,-0.9810573,9.504292,0.07178468,11278902855,-0.105068825,-0.12095132,0.27122417,11278902855,49.71875
11278905094,-0.9379865,9.547362,0.038285162,11278905094,-0.10262536,-0.12461651,0.27122417,11278905094,49.71875
11278907688,-0.9284152,9.542577,0.0047856453,11278907688,-0.10262536,-0.118507855,0.27000242,11278907688,49.71875
11278909577,-0.9284152,9.509077,-0.009571291,11278909577,-0.1001819,-0.12095132,0.267559,11278909577,49.71875
11278911816,-0.94755775,9.518648,-0.062213387,11278911816,-0.103847094,-0.11484267,0.267559,11278911816,49.71875
11278914055,-0.9284152,9.504292,-0.07178468,11278914055,-0.10140363,-0.11362094,0.26633725,11278914055,49.71875
11278916294,-0.8709874,9.456435,-0.10049855,11278916294,-0.105068825,-0.10995574,0.2602286,11278916294,49.71875
11278918541,-0.85184485,9.375079,-0.1052842,11278918541,-0.10262536,-0.10629055,0.25411993,11278918541,49.71875
11278920780,-0.8135597,9.360723,-0.11006984,11278920780,-0.10262536,-0.10629055,0.25167647,11278920780,49.703125
11278923019,-0.79441714,9.432507,-0.10049855,11278923019,-0.1001819,-0.103847094,0.25167647,11278923019,49.703125
11278925258,-0.81834537,9.518648,-0.038285162,11278925258,-0.105068825,-0.1001819,0.24923302,11278925258,49.703125
11278927679,-0.8039884,9.590433,-0.076570325,11278927679,-0.10995574,-0.096516706,0.24678956,11278927679,49.703125
11278929755,-0.7848458,9.657433,-0.05742774,11278929755,-0.1160644,-0.09162979,0.2443461,11278929755,49.703125
11278931994,-0.7704889,9.638289,-0.09092726,11278931994,-0.12217305,-0.09162979,0.23823744,11278931994,49.703125
11278934233,-0.7513463,9.643075,-0.124426775,11278934233,-0.12583824,-0.087964594,0.23579398,11278934233,49.703125
11278936471,-0.7369894,9.652647,-0.11006984,11278936471,-0.12705997,-0.081855945,0.23457226,11278936471,49.703125
11278938729,-0.75613195,9.647861,-0.12921242,11278938729,-0.1282817,-0.07452556,0.23457226,11278938729,49.79297
11278940968,-0.7704889,9.638289,-0.086141616,11278940968,-0.13072516,-0.06719518,0.23090707,11278940968,49.79297
11278943207,-0.7704889,9.7196455,-0.047856454,11278943207,-0.13316862,-0.061086524,0.2284636,11278943207,49.79297
11278945445,-0.7609176,9.820144,-0.014356935,11278945445,-0.14049901,-0.05375614,0.22357668,11278945445,49.79297
11278947679,-0.72263247,9.839287,0.023928227,11278947679,-0.15149458,-0.05009095,0.21868975,11278947679,49.79297
11278949917,-0.66041905,9.834501,0.019142581,11278949917,-0.15882497,-0.043982297,0.21624629,11278949917,49.79297
11278952156,-0.6795616,9.810573,0.02871387,11278952156,-0.16737708,-0.03176499,0.21868975,11278952156,49.79297
11278954395,-0.72263247,9.805787,0.0526421,11278954395,-0.17470746,-0.02321288,0.21624629,11278954395,49.79297
11278956634,-0.7896315,9.858429,0.047856454,11278956634,-0.17470746,-0.014660766,0.21624629,11278956634,49.73828
11278958878,-0.82313097,9.839287,0.076570325,11278958878,-0.172264,-0.008552114,0.2125811,11278958878,49.73828
11278961116,-0.81834537,9.853643,0.05742774,11278961116,-0.17837265,0.002443461,0.20891592,11278961116,49.73828
11278963355,-0.7848458,9.820144,0.086141616,11278963355,-0.18203785,0.009773844,0.204029,11278963355,49.73828
11278965594,-0.7896315,9.834501,0.076570325,11278965594,-0.18570304,0.018325957,0.204029,11278965594,49.73828
11278967853,-0.8470592,9.839287,0.076570325,11278967853,-0.19181168,0.02565634,0.20647246,11278967853,49.73828
11278970092,-0.8853444,9.79143,0.0526421,11278970092,-0.19425514,0.032986723,0.20647246,11278970092,49.73828
11278972331,-0.9619147,9.777073,0.038285162,11278972331,-0.19914207,0.037873644,0.20647246,11278972331,49.73828
11278974570,-0.9954142,9.79143,0.009571291,11278974570,-0.2003638,0.042760566,0.204029,11278974570,49.742188
11278976809,-0.9954142,9.805787,-0.02871387,11278976809,-0.20525073,0.05131268,0.20158553,11278976809,49.742188
11278979042,-0.91405827,9.757931,-0.076570325,11278979042,-0.21013765,0.059864793,0.19792034,11278979042,49.742188
11278981281,-0.8805587,9.781859,-0.09571291,11278981281,-0.21135938,0.064751714,0.1966986,11278981281,49.742188
11278983519,-0.8327023,9.815358,-0.12921242,11278983519,-0.21502456,0.0720821,0.19792034,11278983519,49.742188
11278985758,-0.83748794,9.796216,-0.14356937,11278985758,-0.22113322,0.081855945,0.2003638,11278985758,49.742188
11278988016,-0.86141616,9.815358,-0.148355,11278988016,-0.23090707,0.087964594,0.20280726,11278988016,49.742188
11278990254,-0.8662018,9.848858,-0.17706887,11278990254,-0.2406809,0.096516706,0.19792034,11278990254,49.742188
11278992493,-0.8470592,9.853643,-0.21535404,11278992493,-0.25289822,0.103847094,0.1966986,11278992493,49.6875
11278994732,-0.8279166,9.868001,-0.23928227,11278994732,-0.26145032,0.11362094,0.19547687,11278994732,49.6875
11278996971,-0.7704889,9.868001,-0.30149564,11278996971,-0.26511553,0.12339478,0.19425514,11278996971,49.6875
11278999227,-0.8039884,9.8632145,-0.29671,11278999227,-0.27000242,0.13194689,0.19303341,11278999227,49.6875
11279001466,-0.81834537,9.829716,-0.2536392,11279001466,-0.2761111,0.1441642,0.19547687,11279001466,49.6875
11279003705,-0.8327023,9.829716,-0.24885355,11279003705,-0.2846632,0.15393804,0.19303341,11279003705,49.6875
11279005944,-0.8805587,9.853643,-0.22013968,11279005944,-0.29077184,0.16615535,0.1881465,11279005944,49.6875
11279008189,-0.90448695,9.82493,-0.17706887,11279008189,-0.30176744,0.17592919,0.18325958,11279008189,49.6875
11279010428,-0.8279166,9.848858,-0.18185452,11279010428,-0.3115413,0.18692477,0.18448131,11279010428,49.71875
11279012666,-0.7752745,9.820144,-0.18185452,11279012666,-0.31764993,0.1966986,0.18448131,11279012666,49.71875
11279014905,-0.74177504,9.805787,-0.18664017,11279014905,-0.32498032,0.21013765,0.18203785,11279014905,49.71875
11279017144,-0.74177504,9.801002,-0.18664017,11279017144,-0.33353242,0.22113322,0.18448131,11279017144,49.71875
11279019392,-0.7800602,9.796216,-0.19142582,11279019392,-0.3359759,0.22968534,0.18325958,11279019392,49.71875
11279021630,-0.83748794,9.757931,-0.17228323,11279021630,-0.33964106,0.23701571,0.18203785,11279021630,49.71875
11279023869,-0.86141616,9.781859,-0.17706887,11279023869,-0.34574974,0.25045475,0.18203785,11279023869,49.71875
11279026108,-0.8279166,9.82493,-0.15314065,11279026108,-0.3481932,0.2602286,0.17715092,11279026108,49.71875
11279028347,-0.8135597,9.839287,-0.14356937,11279028347,-0.3555236,0.2724459,0.17715092,11279028347,49.726562
11279030586,-0.7896315,9.801002,-0.148355,11279030586,-0.36041048,0.28099802,0.17470746,11279030586,49.726562
11279032825,-0.7322037,9.786645,-0.11485548,11279032825,-0.36774087,0.29565877,0.17715092,11279032825,49.726562
11279035064,-0.74177504,9.796216,-0.13878371,11279035064,-0.36896262,0.3042109,0.17837265,11279035064,49.726562
11279037680,-0.72741807,9.753145,-0.124426775,11279037680,-0.3726278,0.312763,0.17470746,11279037680,49.726562
11279039546,-0.7465607,9.743574,-0.12921242,11279039546,-0.37384954,0.32253686,0.17104226,11279039546,49.726562
11279041785,-0.7704889,9.781859,-0.11485548,11279041785,-0.37751472,0.3371976,0.17104226,11279041785,49.726562
11279044024,-0.76570326,9.772287,-0.13399807,11279044024,-0.37751472,0.34330627,0.1685988,11279044024,49.726562
11279046263,-0.74177504,9.79143,-0.12921242,11279046263,-0.38240165,0.3567453,0.16493362,11279046263,49.726562
11279048508,-0.70348984,9.820144,-0.2105684,11279048508,-0.38362336,0.3640757,0.16249016,11279048508,49.726562
11279050747,-0.72741807,9.8727865,-0.19142582,11279050747,-0.3885103,0.37384954,0.16126843,11279050747,49.726562
11279052986,-0.71306115,9.8632145,-0.16271193,11279052986,-0.3885103,0.38362336,0.15882497,11279052986,49.726562
11279055225,-0.79920274,9.834501,-0.22971097,11279055225,-0.3933972,0.3933972,0.15760323,11279055225,49.726562
11279057639,-0.8039884,9.79143,-0.19621146,11279057639,-0.38973203,0.40317106,0.15271631,11279057639,49.726562
11279059715,-0.8805587,9.829716,-0.5982057,11279059715,-0.39095375,0.41050145,0.15027285,11279059715,49.726562
11279061954,-0.9954142,9.274581,0.009571291,11279061954,-0.39706242,0.41783184,0.14905111,11279061954,49.726562
11279064193,-0.8853444,9.805787,-0.6221339,11279064193,-0.39095375,0.42149702,0.15027285,11279064193,49.726562
11279066431,-0.9906286,9.288938,-0.09092726,11279066431,-0.39584067,0.43982297,0.14782938,11279066431,49.726562
11279068674,-1.0001999,9.623933,-0.11006984,11279068674,-0.38973203,0.43860126,0.13561209,11279068674,49.726562
11279070913,-0.7369894,9.336794,0.009571291,11279070913,-0.3933972,0.45204028,0.13683382,11279070913,49.726562
11279073151,-0.8566305,10.064212,-0.32063824,11279073151,-0.39461896,0.45448375,0.13194689,11279073151,49.726562
11279075390,-0.6987042,9.499506,0.047856454,11279075390,-0.4129449,0.45814893,0.12950343,11279075390,49.726562
11279077643,-0.79920274,9.700503,0.15314065,11279077643,-0.4129449,0.46914452,0.13316862,11279077643,49.726562
11279079881,-0.9906286,10.01157,-0.63170516,11279079881,-0.42149702,0.46914452,0.13439035,11279079881,49.726562
11279082120,-0.94755775,9.475577,0.71306115,11279082120,-0.4202753,0.48624873,0.13072516,11279082120,49.695312
11279084359,-0.83748794,9.475577,-0.27756742,11279084359,-0.41172317,0.48502702,0.12339478,11279084359,49.695312
11279086598,-1.1533405,10.049855,-0.19621146,11279086598,-0.41050145,0.5021312,0.11728613,11279086598,49.695312
11279088837,-0.66999036,9.533006,0.7513463,11279088837,-0.408058,0.49602258,0.11362094,11279088837,49.695312
11279091076,-0.7322037,9.939785,-0.15792629,11279091076,-0.4092797,0.516792,0.111177474,11279091076,49.695312
11279093315,-0.79441714,9.982856,0.44985065,11279093315,-0.41783184,0.5204572,0.111177474,11279093315,49.695312
11279095553,-0.6221339,9.757931,0.2440679,11279095553,-0.42149702,0.5314528,0.11484267,11279095553,49.695312
11279097803,-0.91405827,9.700503,0.52163535,11279097803,-0.43004912,0.5412266,0.11728613,11279097803,49.695312
11279100042,-0.7704889,9.623933,0.29671,11279100042,-0.43004912,0.5412266,0.111177474,11279100042,49.734375
11279102280,-0.98584294,9.633504,0.3493521,11279102280,-0.43493605,0.5571091,0.10873401,11279102280,49.734375
11279104519,-0.9092726,9.336794,0.56470615,11279104519,-0.43249258,0.55833083,0.10140363,11279104519,49.734375
11279106758,-0.7896315,9.542577,0.4642076,11279106758,-0.4373795,0.5742133,0.1001819,11279106758,49.734375
11279109012,-0.9236295,9.60479,0.57427746,11279109012,-0.43371433,0.5839872,0.10140363,11279109012,49.734375
11279111251,-0.79441714,9.5760765,0.6652047,11279111251,-0.43860126,0.5876524,0.103847094,11279111251,49.734375
11279113490,-0.8757731,9.643075,0.70348984,11279113490,-0.44104472,0.59864795,0.10751228,11279113490,49.734375
11279115729,-1.0097711,9.643075,0.74177504,11279115729,-0.44715336,0.6047566,0.10873401,11279115729,49.734375
11279117967,-0.94755775,9.68136,0.76570326,11279117967,-0.45814893,0.6133087,0.10873401,11279117967,49.75
11279120206,-1.0097711,9.710074,0.82313097,11279120206,-0.4654793,0.625526,0.10629055,11279120206,49.75
11279122445,-1.0097711,9.633504,0.7848458,11279122445,-0.47036624,0.63163465,0.10751228,11279122445,49.75
11279124683,-0.9810573,9.609575,0.8039884,11279124683,-0.47769663,0.643852,0.10995574,11279124683,49.75
11279126922,-1.0767702,9.585648,0.7513463,11279126922,-0.47769663,0.65484756,0.11484267,11279126922,49.75
11279129187,-1.1150553,9.571291,0.79920274,11279129187,-0.4801401,0.6597345,0.118507855,11279129187,49.75
11279131426,-1.1294123,9.5665045,0.7704889,11279131426,-0.47891834,0.6719518,0.119729586,11279131426,49.75
11279133664,-1.2107682,9.533006,0.72741807,11279133664,-0.4813618,0.6817256,0.119729586,11279133664,49.75
11279135903,-1.1724831,9.5665045,0.72263247,11279135903,-0.48380527,0.68661255,0.119729586,11279135903,49.703125
11279138145,-1.1102697,9.619147,0.6843473,11279138145,-0.4886922,0.6927212,0.119729586,11279138145,49.703125
11279140384,-1.1294123,9.705289,0.67477596,11279140384,-0.49357912,0.6976081,0.12095132,11279140384,49.703125
11279142623,-1.0911272,9.710074,0.6029913,11279142623,-0.49602258,0.70616025,0.1282817,11279142623,49.703125
11279144861,-1.119841,9.676575,0.60777694,11279144861,-0.49602258,0.7122689,0.13194689,11279144861,49.703125
11279147100,-1.1676974,9.628718,0.5072784,11279147100,-0.49968776,0.7171558,0.13561209,11279147100,49.703125
11279149335,-1.2394822,9.623933,0.51206404,11279149335,-0.5009095,0.7244862,0.13439035,11279149335,49.703125
11279151574,-1.2299109,9.595219,0.4881358,11279151574,-0.5045747,0.7305948,0.13683382,11279151574,49.703125
11279153813,-1.2299109,9.60479,0.42592242,11279153813,-0.50335294,0.7318166,0.13683382,11279153813,49.726562
11279156052,-1.2299109,9.5665045,0.45942193,11279156052,-0.5045747,0.73914695,0.14049901,11279156052,49.726562
11279158304,-1.2394822,9.537791,0.46899325,11279158304,-0.5045747,0.7440339,0.14538592,11279158304,49.726562
11279160543,-1.2299109,9.556933,0.42592242,11279160543,-0.50701815,0.7476991,0.14660765,11279160543,49.726562
11279162782,-1.2586247,9.523434,0.42592242,11279162782,-0.50579643,0.75747293,0.15027285,11279162782,49.726562
11279165021,-1.2921243,9.533006,0.3924229,11279165021,-0.50335294,0.7623598,0.15271631,11279165021,49.726562
11279167641,-1.2634103,9.590433,0.4019942,11279167641,-0.5045747,0.7672467,0.15149458,11279167641,49.726562
11279169507,-1.268196,9.590433,0.37328035,11279169507,-0.50335294,0.7696902,0.15271631,11279169507,49.726562
11279171746,-1.3208381,9.595219,0.3397808,11279171746,-0.5009095,0.77579886,0.1563815,11279171746,49.71875
11279173985,-1.268196,9.5760765,0.3397808,11279173985,-0.49602258,0.77824235,0.15760323,11279173985,49.71875
11279176224,-1.2729816,9.556933,0.3589234,11279176224,-0.49113566,0.77824235,0.16126843,11279176224,49.71875
11279178482,-1.3064811,9.571291,0.3684947,11279178482,-0.48502702,0.7819075,0.16493362,11279178482,49.71875
11279180721,-1.2777673,9.5665045,0.42592242,11279180721,-0.47891834,0.784351,0.16493362,11279180721,49.71875
11279182960,-1.3208381,9.552148,0.49292147,11279182960,-0.4801401,0.79168135,0.16737708,11279182960,49.71875
11279185199,-1.3208381,9.509077,0.5407779,11279185199,-0.47525316,0.79412484,0.16982053,11279185199,49.71875
11279187644,-1.2873386,9.466006,0.5407779,11279187644,-0.4728097,0.79901177,0.16982053,11279187644,49.71875
11279189673,-1.2921243,9.4229355,0.6221339,11279189673,-0.46914452,0.79779,0.17104226,11279189673,49.726562
11279191912,-1.268196,9.403793,0.65084773,11279191912,-0.45814893,0.7965683,0.17348573,11279191912,49.726562
11279194151,-1.2777673,9.413364,0.66999036,11279194151,-0.45204028,0.79901177,0.17470746,11279194151,49.726562
11279196390,-1.2394822,9.413364,0.6891329,11279196390,-0.44348818,0.8026769,0.17715092,11279196390,49.726562
11279198645,-1.2490535,9.365508,0.7465607,11279198645,-0.43493605,0.8038987,0.17837265,11279198645,49.726562
11279200884,-1.2394822,9.332008,0.7752745,11279200884,-0.42638394,0.8014552,0.17715092,11279200884,49.726562
11279203123,-1.2107682,9.269794,0.7848458,11279203123,-0.4166101,0.8002335,0.17837265,11279203123,49.726562
11279205362,-1.2059826,9.245867,0.8039884,11279205362,-0.40439278,0.8002335,0.18081611,11279205362,49.726562
11279207651,-1.2155539,9.269794,0.79920274,11279207651,-0.3921755,0.8014552,0.18081611,11279207651,49.695312
11279209844,-1.2155539,9.274581,0.8135597,11279209844,-0.3811799,0.8002335,0.18203785,11279209844,49.695312
11279212082,-1.2203395,9.221938,0.8279166,11279212082,-0.3726278,0.8002335,0.18325958,11279212082,49.695312
11279214321,-1.2442678,9.212367,0.8327023,11279214321,-0.35918877,0.8002335,0.18448131,11279214321,49.695312
11279216560,-1.2203395,9.212367,0.79920274,11279216560,-0.34697145,0.79779,0.18448131,11279216560,49.695312
11279218810,-1.268196,9.250652,0.83748794,11279218810,-0.3323107,0.79534656,0.18448131,11279218810,49.695312
11279221048,-1.2346965,9.293723,0.8470592,11279221048,-0.3213151,0.79290307,0.18570304,11279221048,49.695312
11279223287,-1.282553,9.312865,0.8470592,11279223287,-0.30909783,0.79290307,0.18325958,11279223287,49.695312
11279225526,-1.3208381,9.312865,0.8327023,11279225526,-0.29565877,0.79168135,0.18692477,11279225526,49.660156
11279227772,-1.3399807,9.274581,0.83748794,11279227772,-0.28099802,0.7892379,0.18570304,11279227772,49.660156
11279230011,-1.3591232,9.212367,0.8327023,11279230011,-0.26633725,0.78801614,0.18448131,11279230011,49.660156
11279232249,-1.3639089,9.174082,0.8135597,11279232249,-0.25045475,0.7855727,0.18692477,11279232249,49.660156
11279234488,-1.3782659,9.193225,0.7800602,11279234488,-0.2321288,0.7831292,0.19058995,11279234488,49.660156
11279236727,-1.3734802,9.174082,0.7896315,11279236727,-0.21868975,0.7806858,0.19181168,11279236727,49.660156
11279238987,-1.3830515,9.12144,0.79920274,11279238987,-0.20525073,0.7770206,0.19303341,11279238987,49.660156
11279241225,-1.3686945,9.169296,0.8279166,11279241225,-0.18936823,0.77579886,0.19181168,11279241225,49.660156
11279243464,-1.3591232,9.250652,0.8662018,11279243464,-0.17592919,0.77579886,0.19425514,11279243464,49.652344
11279245703,-1.3686945,9.265009,0.8566305,11279245703,-0.16493362,0.7733554,0.19547687,11279245703,49.652344
11279247934,-1.3447664,9.2793665,0.8566305,11279247934,-0.15515977,0.77213365,0.19792034,11279247934,49.652344
11279250173,-1.3734802,9.336794,0.8709874,11279250173,-0.14538592,0.77091193,0.20280726,11279250173,49.652344
11279252412,-1.3639089,9.30808,0.8279166,11279252412,-0.13316862,0.7648033,0.20647246,11279252412,49.652344
11279254650,-1.3974084,9.226724,0.8470592,11279254650,-0.119729586,0.7635816,0.20891592,11279254650,49.652344
11279256889,-1.3974084,9.217153,0.7896315,11279256889,-0.105068825,0.766025,0.20891592,11279256889,49.652344
11279259147,-1.3878372,9.164511,0.8470592,11279259147,-0.089186326,0.7648033,0.21135938,11279259147,49.652344
11279261386,-1.3495519,9.178867,0.89013004,11279261386,-0.07086037,0.7611381,0.21502456,11279261386,49.757812
11279263624,-1.3351951,9.178867,0.9379865,11279263624,-0.059864793,0.7623598,0.21746802,11279263624,49.757812
11279265863,-1.3256238,9.135797,0.93320084,11279265863,-0.05131268,0.7648033,0.21991149,11279265863,49.757812
11279268099,-1.3160524,9.131011,0.95712906,11279268099,-0.040317107,0.7611381,0.22235495,11279268099,49.757812
11279270338,-1.3399807,9.15494,0.9762716,11279270338,-0.03176499,0.75991637,0.23090707,11279270338,49.757812
11279272577,-1.3639089,9.178867,0.93320084,11279272577,-0.02076942,0.75747293,0.23335053,11279272577,49.757812
11279274816,-1.3734802,9.202796,0.93320084,11279274816,-0.008552114,0.75747293,0.23457226,11279274816,49.757812
11279277055,-1.3208381,9.23151,0.9092726,11279277055,0.004886922,0.75625116,0.23457226,11279277055,49.757812
11279279313,-1.3399807,9.2793665,0.85184485,11279279313,0.017104227,0.7538077,0.23701571,11279279313,49.71875
11279281552,-1.282553,9.303294,0.8566305,11279281552,0.029321533,0.75502944,0.23823744,11279281552,49.71875
11279283791,-1.3016955,9.298509,0.81834537,11279283791,0.039095376,0.752586,0.24190263,11279283791,49.71875
11279286029,-1.2921243,9.303294,0.79920274,11279286029,0.05009095,0.75136423,0.24923302,11279286029,49.71875
11279288264,-1.3304094,9.288938,0.79920274,11279288264,0.061086524,0.752586,0.25411993,11279288264,49.71875
11279290502,-1.3639089,9.284152,0.7896315,11279290502,0.06963864,0.75136423,0.2565634,11279290502,49.71875
11279292741,-1.3256238,9.260223,0.7369894,11279292741,0.07941248,0.7501425,0.25534168,11279292741,49.71875
11279294980,-1.2873386,9.260223,0.70348984,11279294980,0.0842994,0.7464773,0.2565634,11279294980,49.71875
11279297640,-1.2634103,9.245867,0.66999036,11279297640,0.09407325,0.7452556,0.25900686,11279297640,49.76953
11279299483,-1.1964114,9.255438,0.6029913,11279299483,0.1001819,0.7464773,0.26389378,11279299483,49.76953
11279301722,-1.2299109,9.265009,0.5838487,11279301722,0.10751228,0.7476991,0.267559,11279301722,49.76953
11279303960,-1.2299109,9.288938,0.6221339,11279303960,0.119729586,0.7476991,0.2724459,11279303960,49.76953
11279306199,-1.2442678,9.30808,0.6029913,11279306199,0.1282817,0.7452556,0.2773328,11279306199,49.76953
11279308450,-1.2634103,9.284152,0.5694918,11279308450,0.13561209,0.7476991,0.2761111,11279308450,49.76953
11279310689,-1.2394822,9.3511505,0.57906306,11279310689,0.1441642,0.7452556,0.2761111,11279310689,49.76953
11279312928,-1.2059826,9.38465,0.56470615,11279312928,0.14660765,0.7452556,0.2773328,11279312928,49.76953
11279315167,-1.1772687,9.399008,0.5886344,11279315167,0.1563815,0.7440339,0.28099802,11279315167,49.722656
11279317679,-1.1724831,9.437292,0.5455636,11279317679,0.1600467,0.7464773,0.28710666,11279317679,49.722656
11279319638,-1.2059826,9.485149,0.5982057,11279319638,0.1600467,0.7464773,0.29077184,11279319638,49.722656
11279321877,-1.2394822,9.470792,0.60777694,11279321877,0.16493362,0.7489208,0.2932153,11279321877,49.722656
11279324116,-1.2059826,9.413364,0.6125626,11279324116,0.17104226,0.7464773,0.2919936,11279324116,49.722656
11279326355,-1.2011969,9.437292,0.64606214,11279326355,0.17592919,0.7489208,0.2932153,11279326355,49.722656
11279328614,-1.119841,9.437292,0.65084773,11279328614,0.17715092,0.7476991,0.29565877,11279328614,49.722656
11279330853,-1.0671989,9.456435,0.67477596,11279330853,0.18203785,0.75136423,0.29810223,11279330853,49.722656
11279333092,-1.0241281,9.456435,0.6891329,11279333092,0.17959438,0.752586,0.30543262,11279333092,49.734375
11279335331,-1.0432707,9.446864,0.74177504,11279335331,0.18203785,0.7538077,0.30665436,11279335331,49.734375
11279337682,-1.0432707,9.427721,0.7513463,11279337682,0.18692477,0.75747293,0.31031954,11279337682,49.734375
11279339805,-1.0624132,9.399008,0.7178468,11279339805,0.18936823,0.75747293,0.30787608,11279339805,49.734375
11279342044,-1.0432707,9.389436,0.7369894,11279342044,0.19425514,0.75869465,0.30665436,11279342044,49.734375
11279344282,-1.0097711,9.370294,0.6987042,11279344282,0.19914207,0.7623598,0.30543262,11279344282,49.734375
11279346521,-0.98584294,9.4229355,0.66999036,11279346521,0.20280726,0.7623598,0.30787608,11279346521,49.734375
11279348777,-0.94755775,9.437292,0.66041905,11279348777,0.20769419,0.7635816,0.30909783,11279348777,49.734375
11279351015,-0.98584294,9.41815,0.6843473,11279351015,0.2125811,0.7672467,0.312763,11279351015,49.76172
11279353254,-0.9810573,9.403793,0.64606214,11279353254,0.21502456,0.7672467,0.31520647,11279353254,49.76172
11279355493,-0.95712906,9.355937,0.6364908,11279355493,0.21624629,0.7696902,0.31398472,11279355493,49.76172
11279357746,-0.9523434,9.365508,0.61734825,11279357746,0.22235495,0.77091193,0.312763,11279357746,49.76172
11279359985,-0.91405827,9.408579,0.59342,11279359985,0.22357668,0.77457714,0.31031954,11279359985,49.76172
11279362224,-0.8422736,9.399008,0.56470615,11279362224,0.22479841,0.77457714,0.30787608,11279362224,49.76172
11279364463,-0.80877405,9.408579,0.526421,11279364463,0.22724187,0.77579886,0.30787608,11279364463,49.76172
11279366702,-0.7704889,9.346365,0.47377887,11279366702,0.22968534,0.77824235,0.30665436,11279366702,49.76172
11279368940,-0.75613195,9.375079,0.44985065,11279368940,0.2321288,0.77946407,0.31031954,11279368940,49.753906
11279371179,-0.7752745,9.408579,0.42592242,11279371179,0.2321288,0.7806858,0.30787608,11279371179,49.753906
11279373417,-0.7848458,9.41815,0.38285163,11279373417,0.2321288,0.7831292,0.3042109,11279373417,49.753906
11279375656,-0.76570326,9.432507,0.38285163,11279375656,0.23335053,0.784351,0.30176744,11279375656,49.753906
11279377910,-0.76570326,9.4229355,0.32063824,11279377910,0.2321288,0.7855727,0.3005457,11279377910,49.753906
11279380149,-0.7609176,9.446864,0.32063824,11279380149,0.23701571,0.7892379,0.29810223,11279380149,49.753906
11279382387,-0.7609176,9.446864,0.25842485,11279382387,0.23701571,0.79290307,0.29810223,11279382387,49.753906
11279384626,-0.7896315,9.432507,0.2632105,11279384626,0.23579398,0.79534656,0.29565877,11279384626,49.753906
11279386865,-0.81834537,9.403793,0.2536392,11279386865,0.23579398,0.79534656,0.2968805,11279386865,49.71875
11279389093,-0.8327023,9.4229355,0.23449662,11279389093,0.23457226,0.8002335,0.29810223,11279389093,49.71875
11279391332,-0.86141616,9.466006,0.22971097,11279391332,0.23457226,0.8014552,0.2932153,11279391332,49.71875
11279393571,-0.8566305,9.45165,0.18185452,11279393571,0.23335053,0.80756384,0.29077184,11279393571,49.71875
11279395810,-0.8422736,9.45165,0.14356937,11279395810,0.2321288,0.81122905,0.29077184,11279395810,49.71875
11279398060,-0.82313097,9.4229355,0.11485548,11279398060,0.22968534,0.816116,0.2932153,11279398060,49.71875
11279400299,-0.8422736,9.38465,0.11485548,11279400299,0.22724187,0.8173377,0.2919936,11279400299,49.71875
11279402538,-0.8853444,9.394221,0.11964113,11279402538,0.22724187,0.8197812,0.29077184,11279402538,49.71875
11279404777,-0.8757731,9.442079,0.124426775,11279404777,0.22724187,0.82344633,0.28955013,11279404777,49.757812
11279407016,-0.89491564,9.504292,0.11485548,11279407016,0.22724187,0.82833326,0.2883284,11279407016,49.757812
11279409267,-0.8662018,9.509077,0.06699903,11279409267,0.22724187,0.8332202,0.28710666,11279409267,49.757812
11279411506,-0.8470592,9.533006,0.05742774,11279411506,0.22602014,0.8405506,0.28588495,11279411506,49.757812
11279413744,-0.8470592,9.556933,0.019142581,11279413744,0.21868975,0.8417723,0.28588495,11279413744,49.757812
11279415983,-0.8853444,9.504292,0.009571291,11279415983,0.21868975,0.84665924,0.28588495,11279415983,49.757812
11279418245,-0.90448695,9.499506,-0.038285162,11279418245,0.21624629,0.8503244,0.2883284,11279418245,49.757812
11279420484,-0.9284152,9.461221,-0.062213387,11279420484,0.21746802,0.8564331,0.28588495,11279420484,49.757812
11279422722,-0.91405827,9.45165,-0.062213387,11279422722,0.22113322,0.8588765,0.2846632,11279422722,49.710938
11279424961,-0.89013004,9.437292,-0.09571291,11279424961,0.21746802,0.86376345,0.27977628,11279424961,49.710938
11279427680,-0.8757731,9.4229355,-0.13878371,11279427680,0.21746802,0.86620694,0.27977628,11279427680,49.710938
11279429430,-0.86141616,9.432507,-0.124426775,11279429430,0.21380283,0.86742866,0.2773328,11279429430,49.710938
11279431668,-0.8422736,9.446864,-0.14356937,11279431668,0.2125811,0.8698721,0.27977628,11279431668,49.710938
11279433907,-0.8566305,9.437292,-0.148355,11279433907,0.21013765,0.8772025,0.27977628,11279433907,49.710938
11279436146,-0.91884387,9.403793,-0.16749759,11279436146,0.20525073,0.88086766,0.2773328,11279436146,49.710938
11279438404,-0.91405827,9.355937,-0.17706887,11279438404,0.204029,0.88453287,0.2761111,11279438404,49.710938
11279440643,-0.90448695,9.360723,-0.17706887,11279440643,0.20525073,0.88697636,0.2724459,11279440643,49.726562
11279442882,-0.8566305,9.355937,-0.22492532,11279442882,0.204029,0.88697636,0.26633725,11279442882,49.726562
11279445121,-0.80877405,9.336794,-0.22492532,11279445121,0.2003638,0.8894198,0.267559,11279445121,49.726562
11279447680,-0.8279166,9.312865,-0.23449662,11279447680,0.19792034,0.8918633,0.2687807,11279447680,49.726562
11279449616,-0.8327023,9.293723,-0.21535404,11279449616,0.19303341,0.8943067,0.27122417,11279449616,49.726562
11279451855,-0.8566305,9.30808,-0.17706887,11279451855,0.18936823,0.89552844,0.2687807,11279451855,49.726562
11279454094,-0.8709874,9.2793665,-0.17228323,11279454094,0.18448131,0.89675015,0.26267207,11279454094,49.726562
11279456333,-0.8757731,9.336794,-0.11485548,11279456333,0.17959438,0.89919364,0.25900686,11279456333,49.726562
11279458566,-0.79441714,9.4229355,-0.13878371,11279458566,0.17470746,0.90408057,0.2565634,11279458566,49.660156
11279460805,-0.72263247,9.403793,-0.15314065,11279460805,0.172264,0.9053023,0.25289822,11279460805,49.660156
11279463043,-0.7178468,9.3511505,-0.12921242,11279463043,0.1685988,0.9089675,0.25534168,11279463043,49.660156
11279465282,-0.7082755,9.322437,-0.13399807,11279465282,0.16249016,0.9138544,0.25411993,11279465282,49.660156
11279467679,-0.75613195,9.30808,-0.11006984,11279467679,0.16249016,0.91629785,0.25289822,11279467679,49.660156
11279469778,-0.81834537,9.312865,-0.09092726,11279469778,0.15760323,0.91874135,0.24923302,11279469778,49.660156
11279472017,-0.8135597,9.312865,-0.043070808,11279472017,0.15149458,0.92485,0.24312437,11279472017,49.660156
11279474256,-0.79441714,9.327223,-0.033499517,11279474256,0.14538592,0.9272934,0.23945917,11279474256,49.660156
11279476495,-0.7848458,9.341579,0.0047856453,11279476495,0.13683382,0.9285152,0.23457226,11279476495,49.76172
11279478743,-0.7848458,9.370294,0.014356935,11279478743,0.13316862,0.93584555,0.23701571,11279478743,49.76172
11279480981,-0.82313097,9.317652,0.019142581,11279480981,0.12950343,0.93584555,0.23945917,11279480981,49.76172
11279483220,-0.8662018,9.236296,0,11279483220,0.12461651,0.93951076,0.23701571,11279483220,49.76172
11279485459,-0.8757731,9.135797,-0.02871387,11279485459,0.119729586,0.93951076,0.23335053,11279485459,49.76172
11279487691,-0.8805587,9.126225,-0.02871387,11279487691,0.11362094,0.9407325,0.22968534,11279487691,49.76172
11279489930,-0.86141616,9.150154,-0.05742774,11279489930,0.10995574,0.9407325,0.22724187,11279489930,49.76172
11279492169,-0.8279166,9.23151,-0.076570325,11279492169,0.10751228,0.9407325,0.22113322,11279492169,49.76172
11279494408,-0.7896315,9.274581,-0.09571291,11279494408,0.09896017,0.9407325,0.22235495,11279494408,49.73828
11279496646,-0.8279166,9.245867,-0.086141616,11279496646,0.09285152,0.9419542,0.22235495,11279496646,49.73828
11279498904,-0.8662018,9.245867,-0.13399807,11279498904,0.089186326,0.9407325,0.22357668,11279498904,49.73828
11279501143,-0.8709874,9.212367,-0.15792629,11279501143,0.087964594,0.9407325,0.21868975,11279501143,49.73828
11279503382,-0.91884387,9.164511,-0.15314065,11279503382,0.081855945,0.9456194,0.21380283,11279503382,49.73828
11279505620,-0.90448695,9.102298,-0.17228323,11279505620,0.07941248,0.9468411,0.2125811,11279505620,49.73828
11279507864,-0.8566305,9.078369,-0.2009971,11279507864,0.07696902,0.9456194,0.21013765,11279507864,49.73828
11279510103,-0.8662018,9.073584,-0.21535404,11279510103,0.07574729,0.9419542,0.20769419,11279510103,49.73828
11279512342,-0.8470592,9.08794,-0.2105684,11279512342,0.073303826,0.9407325,0.204029,11279512342,49.71875
11279514581,-0.8662018,9.08794,-0.2009971,11279514581,0.065973446,0.9407325,0.20280726,11279514581,49.71875
11279516820,-0.8997013,9.097511,-0.22492532,11279516820,0.061086524,0.9407325,0.20280726,11279516820,49.71875
11279519070,-0.9236295,9.12144,-0.20578274,11279519070,0.056199603,0.93828905,0.19914207,11279519070,49.71875
11279521309,-0.94277215,9.159725,-0.2105684,11279521309,0.04886922,0.93584555,0.1966986,11279521309,49.71875
11279523548,-0.90448695,9.193225,-0.22013968,11279523548,0.043982297,0.93462384,0.19303341,11279523548,49.71875
11279525787,-0.90448695,9.178867,-0.23928227,11279525787,0.04153884,0.9309586,0.19425514,11279525787,49.71875
11279528042,-0.89491564,9.19801,-0.2440679,11279528042,0.035430185,0.9285152,0.18936823,11279528042,49.71875
11279530281,-0.9092726,9.193225,-0.23449662,11279530281,0.036651913,0.9285152,0.1881465,11279530281,49.757812
11279532520,-0.94277215,9.097511,-0.22013968,11279532520,0.034208454,0.9224065,0.1881465,11279532520,49.757812
11279534758,-0.9906286,9.020942,-0.18185452,11279534758,0.030543262,0.91874135,0.18570304,11279534758,49.757812
11279536997,-1.0193424,9.01137,-0.15792629,11279536997,0.02565634,0.91629785,0.18325958,11279536997,49.757812
11279539232,-1.0241281,8.939586,-0.14356937,11279539232,0.02565634,0.9138544,0.18081611,11279539232,49.757812
11279541471,-1.0049855,8.944371,-0.10049855,11279541471,0.02565634,0.9114109,0.17592919,11279541471,49.757812
11279543710,-0.971486,8.997013,-0.11964113,11279543710,0.021991149,0.9126327,0.17348573,11279543710,49.757812
11279545949,-0.9379865,9.016156,-0.08135597,11279545949,0.015882496,0.9101892,0.17348573,11279545949,49.757812
11279548204,-0.94755775,8.963513,-0.10049855,11279548204,0.009773844,0.906524,0.17470746,11279548204,49.66797
11279550443,-0.98584294,8.915657,-0.1052842,11279550443,0.010995574,0.90041536,0.17104226,11279550443,49.66797
11279552682,-1.0097711,8.949157,-0.10049855,11279552682,0.009773844,0.89919364,0.172264,11279552682,49.66797
11279554921,-1.0336994,8.958728,-0.09092726,11279554921,0.015882496,0.89919364,0.1685988,11279554921,49.66797
11279557159,-1.0145568,8.915657,-0.09092726,11279557159,0.012217305,0.89919364,0.16615535,11279557159,49.66797
11279559394,-1.0097711,8.939586,-0.11006984,11279559394,0.008552114,0.89552844,0.16126843,11279559394,49.66797
11279561632,-0.9667004,9.001799,-0.076570325,11279561632,0.0061086523,0.89552844,0.1600467,11279561632,49.66797
11279563871,-0.93320084,9.030513,-0.086141616,11279563871,0.0012217305,0.893085,0.15882497,11279563871,49.66797
11279566110,-0.95712906,9.068798,-0.062213387,11279566110,-0.0036651916,0.8918633,0.15882497,11279566110,49.703125
11279568353,-0.971486,9.111869,-0.086141616,11279568353,-0.002443461,0.8918633,0.1563815,11279568353,49.703125
11279570592,-0.98584294,9.073584,-0.09571291,11279570592,-0.0061086523,0.893085,0.15393804,11279570592,49.703125
11279572830,-0.9810573,9.016156,-0.13399807,11279572830,-0.0061086523,0.893085,0.15149458,11279572830,49.703125
11279575069,-0.9810573,9.016156,-0.13878371,11279575069,-0.0036651916,0.893085,0.14782938,11279575069,49.703125
11279577641,-0.9667004,9.040084,-0.15314065,11279577641,-0.0061086523,0.88697636,0.14538592,11279577641,49.703125
11279579577,-0.9619147,9.016156,-0.15792629,11279579577,-0.008552114,0.8894198,0.1441642,11279579577,49.703125
11279581816,-0.98584294,9.035298,-0.11485548,11279581816,-0.008552114,0.8857546,0.1441642,11279581816,49.703125
11279584055,-1.0049855,9.068798,-0.1052842,11279584055,-0.010995574,0.8857546,0.14294247,11279584055,49.726562
11279586294,-1.0289137,9.064013,-0.1052842,11279586294,-0.018325957,0.88208944,0.13927728,11279586294,49.726562
11279588540,-0.98584294,9.025727,-0.1052842,11279588540,-0.02443461,0.88086766,0.13561209,11279588540,49.726562
11279590779,-0.94277215,9.049655,-0.13399807,11279590779,-0.028099801,0.87964594,0.13316862,11279590779,49.726562
11279593017,-0.90448695,9.049655,-0.14356937,11279593017,-0.032986723,0.8784242,0.12950343,11279593017,49.726562
11279595256,-0.9284152,9.030513,-0.1052842,11279595256,-0.034208454,0.87598073,0.13072516,11279595256,49.726562
11279597640,-0.91405827,9.064013,-0.086141616,11279597640,-0.035430185,0.874759,0.12950343,11279597640,49.726562
11279599739,-0.971486,9.097511,-0.062213387,11279599739,-0.040317107,0.8723156,0.1282817,11279599739,49.726562
11279601978,-1.0097711,9.078369,-0.033499517,11279601978,-0.047647487,0.874759,0.12583824,11279601978,49.703125
11279604217,-0.98584294,9.049655,-0.02871387,11279604217,-0.05497787,0.8723156,0.12095132,11279604217,49.703125
11279606456,-0.9762716,9.083155,-0.038285162,11279606456,-0.057421334,0.8698721,0.118507855,11279606456,49.703125
11279608686,-0.9762716,9.078369,0.014356935,11279608686,-0.06841691,0.8686504,0.118507855,11279608686,49.703125
11279610925,-0.9523434,9.092726,0.014356935,11279610925,-0.073303826,0.86498517,0.12095132,11279610925,49.703125
11279613163,-0.9906286,9.044869,-0.0047856453,11279613163,-0.073303826,0.86376345,0.119729586,11279613163,49.703125
11279615402,-1.0671989,9.016156,0.047856454,11279615402,-0.07452556,0.86498517,0.118507855,11279615402,49.703125
11279617663,-1.052842,9.016156,0.062213387,11279617663,-0.07574729,0.8576548,0.11484267,11279617663,49.703125
11279619902,-1.038485,9.01137,0.10049855,11279619902,-0.081855945,0.8564331,0.111177474,11279619902,49.726562
11279622140,-1.0193424,9.064013,0.1052842,11279622140,-0.080634214,0.8527679,0.10995574,11279622140,49.726562
11279624379,-0.95712906,9.107083,0.08135597,11279624379,-0.08674286,0.85154617,0.10995574,11279624379,49.726562
11279626618,-0.9667004,9.097511,0.09571291,11279626618,-0.09407325,0.8503244,0.10995574,11279626618,49.726562
11279628859,-1.0145568,9.102298,0.11485548,11279628859,-0.095294975,0.85154617,0.111177474,11279628859,49.726562
11279631098,-1.0671989,9.131011,0.11006984,11279631098,-0.096516706,0.8503244,0.10995574,11279631098,49.726562
11279633337,-1.1150553,9.174082,0.086141616,11279633337,-0.1001819,0.8454375,0.10873401,11279633337,49.726562
11279635576,-1.0959128,9.159725,0.07178468,11279635576,-0.10140363,0.8405506,0.10751228,11279635576,49.726562
11279637829,-1.105484,9.183653,0.07178468,11279637829,-0.1001819,0.8405506,0.10262536,11279637829,49.726562
11279640068,-1.1246266,9.217153,0.11006984,11279640068,-0.10140363,0.8332202,0.105068825,11279640068,49.726562
11279642307,-1.1294123,9.250652,0.09092726,11279642307,-0.103847094,0.83077675,0.10751228,11279642307,49.726562
11279644545,-1.1629118,9.265009,0.08135597,11279644545,-0.105068825,0.82711154,0.10629055,11279644545,49.726562
11279646784,-1.2011969,9.236296,0.06699903,11279646784,-0.105068825,0.8246681,0.10751228,11279646784,49.726562
11279649024,-1.2107682,9.2075815,0.023928227,11279649024,-0.10751228,0.8197812,0.10629055,11279649024,49.726562
11279651262,-1.2011969,9.19801,0,11279651262,-0.10629055,0.81489426,0.10629055,11279651262,49.726562
11279653501,-1.2203395,9.265009,-0.05742774,11279653501,-0.1001819,0.81245077,0.103847094,11279653501,49.726562
11279655740,-1.2107682,9.241081,-0.062213387,11279655740,-0.09896017,0.80756384,0.10629055,11279655740,49.76172
11279658000,-1.2251252,9.188439,-0.086141616,11279658000,-0.096516706,0.8051204,0.10751228,11279658000,49.76172
11279660239,-1.2346965,9.236296,-0.11006984,11279660239,-0.09407325,0.8051204,0.10995574,11279660239,49.76172
11279662478,-1.2442678,9.250652,-0.10049855,11279662478,-0.09162979,0.79901177,0.10629055,11279662478,49.76172
11279664716,-1.253839,9.284152,-0.09092726,11279664716,-0.095294975,0.79779,0.105068825,11279664716,49.76172
11279666955,-1.2155539,9.327223,-0.13399807,11279666955,-0.09162979,0.79412484,0.10262536,11279666955,49.76172
11279669196,-1.1916257,9.327223,-0.17706887,11279669196,-0.095294975,0.79045963,0.103847094,11279669196,49.76172
11279671435,-1.2155539,9.322437,-0.148355,11279671435,-0.09285152,0.78801614,0.105068825,11279671435,49.76172
11279673674,-1.2107682,9.370294,-0.2009971,11279673674,-0.087964594,0.784351,0.10995574,11279673674,49.69922
11279675913,-1.2203395,9.408579,-0.19142582,11279675913,-0.08307768,0.7819075,0.111177474,11279675913,49.69922
11279678164,-1.268196,9.413364,-0.21535404,11279678164,-0.080634214,0.77579886,0.10873401,11279678164,49.69922
11279680403,-1.253839,9.466006,-0.19621146,11279680403,-0.080634214,0.77213365,0.10873401,11279680403,49.69922
11279682642,-1.2586247,9.513863,-0.15792629,11279682642,-0.080634214,0.7696902,0.10751228,11279682642,49.69922
11279684881,-1.2729816,9.518648,-0.17228323,11279684881,-0.07452556,0.7623598,0.10995574,11279684881,49.69922
11279687119,-1.2777673,9.509077,-0.13878371,11279687119,-0.07086037,0.75747293,0.10995574,11279687119,49.69922
11279689361,-1.2873386,9.49472,-0.13399807,11279689361,-0.06719518,0.75136423,0.11362094,11279689361,49.69922
11279691599,-1.3543376,9.523434,-0.10049855,11279691599,-0.06719518,0.7464773,0.11484267,11279691599,49.734375
11279693838,-1.3447664,9.542577,-0.062213387,11279693838,-0.06719518,0.7415904,0.111177474,11279693838,49.734375
11279696077,-1.3686945,9.561719,-0.043070808,11279696077,-0.062308256,0.74036866,0.11484267,11279696077,49.734375
11279698327,-1.3782659,9.571291,-0.047856454,11279698327,-0.059864793,0.73426,0.119729586,11279698327,49.734375
11279700566,-1.3591232,9.533006,0,11279700566,-0.057421334,0.7244862,0.12095132,11279700566,49.734375
11279702805,-1.3878372,9.542577,0.05742774,11279702805,-0.052534413,0.72082096,0.12339478,11279702805,49.734375
11279705044,-1.4069797,9.5665045,0.09092726,11279705044,-0.04886922,0.7147123,0.12705997,11279705044,49.734375
11279707654,-1.4356936,9.561719,0.15314065,11279707654,-0.043982297,0.70738196,0.12950343,11279707654,49.734375
11279709520,-1.430908,9.547362,0.22492532,11279709520,-0.042760566,0.70371675,0.13072516,11279709520,49.710938
11279711759,-1.4596218,9.547362,0.23449662,11279711759,-0.040317107,0.6963864,0.13439035,11279711759,49.710938
11279713998,-1.4835501,9.552148,0.26799613,11279713998,-0.035430185,0.6927212,0.13805555,11279713998,49.710938
11279716237,-1.4787644,9.533006,0.28235307,11279716237,-0.03176499,0.68539083,0.14172074,11279716237,49.710938
11279718503,-1.5457634,9.556933,0.31106696,11279718503,-0.021991149,0.6817256,0.15027285,11279718503,49.710938
11279720742,-1.5888343,9.552148,0.31585258,11279720742,-0.017104227,0.6780604,0.15393804,11279720742,49.710938
11279722981,-1.5936198,9.580862,0.32542387,11279722981,-0.010995574,0.66828656,0.1563815,11279722981,49.710938
11279725220,-1.6127625,9.628718,0.32542387,11279725220,-0.007330383,0.66339964,0.1600467,11279725220,49.710938
11279727641,-1.6127625,9.628718,0.33499518,11279727641,-0.0012217305,0.6536258,0.16493362,11279727641,49.71875
11279729694,-1.6127625,9.647861,0.33499518,11279729694,0.002443461,0.64873886,0.16737708,11279729694,49.71875
11279731933,-1.5696917,9.623933,0.30149564,11279731933,0.009773844,0.6426302,0.17470746,11279731933,49.71875
11279734171,-1.579263,9.600004,0.28713873,11279734171,0.014660766,0.63529986,0.17959438,11279734171,49.71875
11279736410,-1.5984055,9.60479,0.29192436,11279736410,0.02076942,0.6291912,0.18692477,11279736410,49.71875
11279738650,-1.5936198,9.628718,0.3062813,11279738650,0.02565634,0.6206391,0.19303341,11279738650,49.71875
11279740889,-1.6175481,9.600004,0.33499518,11279740889,0.03176499,0.61453044,0.19792034,11279740889,49.71875
11279743128,-1.5984055,9.60479,0.31106696,11279743128,0.036651913,0.6096435,0.204029,11279743128,49.71875
11279745367,-1.5696917,9.609575,0.32542387,11279745367,0.039095376,0.60231316,0.20647246,11279745367,49.734375
11279747679,-1.5553347,9.609575,0.28235307,11279747679,0.042760566,0.59498274,0.2125811,11279747679,49.734375
11279749872,-1.5074782,9.638289,0.2536392,11279749872,0.043982297,0.5900958,0.21868975,11279749872,49.734375
11279752110,-1.5266209,9.647861,0.21535404,11279752110,0.04642576,0.5852089,0.22479841,11279752110,49.734375
11279754349,-1.5409778,9.590433,0.20578274,11279754349,0.047647487,0.5766568,0.2321288,11279754349,49.734375
11279756588,-1.5601203,9.623933,0.23928227,11279756588,0.052534413,0.5729916,0.23701571,11279756588,49.734375
11279758820,-1.5314065,9.671789,0.23449662,11279758820,0.05497787,0.56688297,0.23945917,11279758820,49.734375
11279761059,-1.5074782,9.676575,0.2105684,11279761059,0.059864793,0.56321776,0.2443461,11279761059,49.734375
11279763298,-1.4548361,9.710074,0.20578274,11279763298,0.062308256,0.55833083,0.24678956,11279763298,49.726562
11279765537,-1.416551,9.729217,0.19621146,11279765537,0.064751714,0.5510005,0.25167647,11279765537,49.726562
11279767797,-1.4691931,9.710074,0.22971097,11279767797,0.06963864,0.54733527,0.2602286,11279767797,49.726562
11279770036,-1.4931214,9.7196455,0.22013968,11279770036,0.06963864,0.5412266,0.267559,11279770036,49.726562
11279772275,-1.5074782,9.734002,0.18664017,11279772275,0.073303826,0.535118,0.27366763,11279772275,49.726562
11279774514,-1.5314065,9.7196455,0.2632105,11279774514,0.07452556,0.5314528,0.2761111,11279774514,49.726562
11279776752,-1.5026926,9.743574,0.28235307,11279776752,0.07452556,0.52656585,0.2761111,11279776752,49.726562
11279778987,-1.4787644,9.801002,0.31585258,11279778987,0.07941248,0.5216789,0.28221974,11279778987,49.726562
11279781225,-1.4500505,9.777073,0.32542387,11279781225,0.07941248,0.5155703,0.28710666,11279781225,49.76172
11279783464,-1.4691931,9.738789,0.40677986,11279783464,0.07819075,0.5119051,0.29443705,11279783464,49.76172
11279785703,-1.5122639,9.79143,0.41156548,11279785703,0.0842994,0.50823987,0.30298916,11279785703,49.76172
11279787959,-1.5361922,9.796216,0.4354937,11279787959,0.08674286,0.5021312,0.30787608,11279787959,49.76172
11279790198,-1.5601203,9.786645,0.4546363,11279790198,0.0842994,0.49968776,0.31031954,11279790198,49.76172
11279792437,-1.5266209,9.820144,0.41635114,11279792437,0.087964594,0.49235737,0.31642818,11279792437,49.76172
11279794676,-1.5122639,9.882358,0.41635114,11279794676,0.089186326,0.48624873,0.31887165,11279794676,49.76172
11279796915,-1.4931214,9.915857,0.4019942,11279796915,0.09407325,0.48380527,0.32620203,11279796915,49.76172
11279799170,-1.4931214,9.925428,0.3684947,11279799170,0.096516706,0.4813618,0.33475417,11279799170,49.753906
11279801409,-1.5218352,9.958928,0.36370903,11279801409,0.095294975,0.47525316,0.344528,11279801409,49.753906
11279803648,-1.564906,9.987641,0.40677986,11279803648,0.095294975,0.4728097,0.3481932,11279803648,49.753906
11279805886,-1.564906,10.006784,0.3684947,11279805886,0.09407325,0.46914452,0.35308012,11279805886,49.753906
11279808132,-1.5266209,9.968499,0.34456646,11279808132,0.089186326,0.46792278,0.35796702,11279808132,49.753906
11279810370,-1.5409778,9.982856,0.36370903,11279810370,0.09162979,0.46181414,0.36285394,11279810370,49.753906
11279812609,-1.4931214,10.021141,0.2727818,11279812609,0.09285152,0.45937067,0.3726278,11279812609,49.753906
11279814848,-1.5361922,10.021141,0.31585258,11279814848,0.09285152,0.45814893,0.38240165,11279814848,49.753906
11279817087,-1.5888343,10.078569,0.2727818,11279817087,0.09285152,0.453262,0.3885103,11279817087,49.71875
11279819328,-1.6223338,10.1599245,0.2632105,11279819328,0.09407325,0.44959682,0.39461896,11279819328,49.71875
11279821566,-1.6366907,10.212567,0.23449662,11279821566,0.089186326,0.44837508,0.40194935,11279821566,49.71875
11279823805,-1.6510476,10.19821,0.18185452,11279823805,0.087964594,0.44348818,0.408058,11279823805,49.71875
11279826044,-1.6031911,10.169497,0.16271193,11279826044,0.09040806,0.4373795,0.4129449,11279826044,49.71875
11279828296,-1.5936198,10.150353,0.13878371,11279828296,0.089186326,0.43493605,0.42149702,11279828296,49.71875
11279830535,-1.6031911,10.131211,0.09571291,11279830535,0.09040806,0.43004912,0.43249258,11279830535,49.71875
11279832774,-1.6223338,10.116854,0.086141616,11279832774,0.089186326,0.42638394,0.44104472,11279832774,49.71875
11279835013,-1.6271194,10.140782,0.047856454,11279835013,0.09040806,0.42271876,0.44593164,11279835013,49.703125
11279837681,-1.5840486,10.179068,0.02871387,11279837681,0.09040806,0.4202753,0.44837508,11279837681,49.703125
11279839501,-1.5601203,10.188639,0.023928227,11279839501,0.0842994,0.41905355,0.45448375,11279839501,49.703125
11279841739,-1.4835501,10.217353,-0.023928227,11279841739,0.080634214,0.41416663,0.45937067,11279841739,49.703125
11279843978,-1.4500505,10.241281,-0.09092726,11279843978,0.07941248,0.41538838,0.4654793,11279843978,49.703125
11279846217,-1.4548361,10.217353,-0.08135597,11279846217,0.07941248,0.41416663,0.47403142,11279846217,49.703125
11279848450,-1.4500505,10.193424,-0.10049855,11279848450,0.07574729,0.41416663,0.48258355,11279848450,49.703125
11279850689,-1.4739788,10.150353,-0.09571291,11279850689,0.07574729,0.41172317,0.48747048,11279850689,49.703125
11279852928,-1.4548361,10.116854,-0.076570325,11279852928,0.07574729,0.41172317,0.48991394,11279852928,49.726562
11279855167,-1.402194,10.107283,-0.0526421,11279855167,0.07574729,0.41050145,0.49113566,11279855167,49.726562
11279857673,-1.3064811,10.164711,-0.07178468,11279857673,0.07696902,0.4129449,0.49357912,11279857673,49.726562
11279859656,-1.268196,10.174282,-0.023928227,11279859656,0.07574729,0.41416663,0.5009095,11279859656,49.726562
11279861895,-1.2777673,10.164711,-0.009571291,11279861895,0.07574729,0.41172317,0.50701815,11279861895,49.726562
11279864133,-1.2921243,10.164711,0.014356935,11279864133,0.073303826,0.408058,0.5131268,11279864133,49.726562
11279866372,-1.3399807,10.145568,0.02871387,11279866372,0.06963864,0.408058,0.5180137,11279866372,49.726562
11279868612,-1.3304094,10.112068,0.047856454,11279868612,0.06719518,0.408058,0.5180137,11279868612,49.726562
11279870851,-1.268196,10.092926,0.09092726,11279870851,0.06719518,0.4092797,0.5180137,11279870851,49.726562
11279873090,-1.1964114,10.126426,0.0526421,11279873090,0.06963864,0.408058,0.5180137,11279873090,49.726562
11279875329,-1.1006985,10.150353,0.047856454,11279875329,0.06963864,0.4092797,0.51923543,11279875329,49.726562
11279877674,-1.0719845,10.140782,0.086141616,11279877674,0.06963864,0.40683624,0.52534413,11279877674,49.726562
11279879820,-1.0719845,10.092926,0.09571291,11279879820,0.07574729,0.4092797,0.52778757,11279879820,49.726562
11279882059,-1.0911272,10.112068,0.148355,11279882059,0.07819075,0.40683624,0.53023106,11279882059,49.726562
11279884298,-1.1006985,10.145568,0.148355,11279884298,0.07696902,0.40561453,0.52778757,11279884298,49.726562
11279886536,-1.0911272,10.131211,0.15314065,11279886536,0.07819075,0.40439278,0.52656585,11279886536,49.726562
11279888779,-1.0767702,10.179068,0.16271193,11279888779,0.07941248,0.40439278,0.52290064,11279888779,49.710938
11279891017,-1.0097711,10.188639,0.148355,11279891017,0.081855945,0.40439278,0.52290064,11279891017,49.710938
11279893256,-0.9810573,10.217353,0.13399807,11279893256,0.08674286,0.40439278,0.52412236,11279893256,49.710938
11279895495,-0.9667004,10.226924,0.0526421,11279895495,0.09162979,0.40194935,0.52412236,11279895495,49.710938
11279897744,-0.9810573,10.236495,0.014356935,11279897744,0.09040806,0.4007276,0.52412236,11279897744,49.710938
11279899983,-1.0145568,10.19821,0.05742774,11279899983,0.09407325,0.39706242,0.52412236,11279899983,49.710938
11279902222,-0.9810573,10.202995,0.033499517,11279902222,0.09285152,0.39584067,0.52290064,11279902222,49.710938
11279904461,-0.9667004,10.217353,0.038285162,11279904461,0.09285152,0.3933972,0.516792,11279904461,49.710938
11279906700,-0.9236295,10.179068,0.019142581,11279906700,0.09773844,0.39095375,0.5119051,11279906700,49.710938
11279908963,-0.89013004,10.179068,-0.009571291,11279908963,0.09773844,0.3885103,0.5119051,11279908963,49.710938
11279911201,-0.8997013,10.241281,-0.033499517,11279911201,0.09773844,0.3848451,0.5155703,11279911201,49.710938
11279913440,-0.93320084,10.246066,0.023928227,11279913440,0.09162979,0.38240165,0.516792,11279913440,49.710938
11279915679,-0.98584294,10.250853,-0.019142581,11279915679,0.09162979,0.37995818,0.5143485,11279915679,49.710938
11279917918,-0.9954142,10.269995,-0.05742774,11279917918,0.09407325,0.37873647,0.5119051,11279917918,49.710938
11279920157,-0.95712906,10.293923,-0.014356935,11279920157,0.09407325,0.376293,0.50823987,11279920157,49.710938
11279922396,-0.90448695,10.298709,-0.02871387,11279922396,0.09040806,0.37873647,0.50579643,11279922396,49.710938
11279924635,-0.86141616,10.346565,-0.009571291,11279924635,0.089186326,0.37751472,0.5021312,11279924635,49.726562
11279926874,-0.8422736,10.408778,-0.014356935,11279926874,0.087964594,0.376293,0.50335294,11279926874,49.726562
11279929116,-0.85184485,10.380065,0.014356935,11279929116,0.08674286,0.37995818,0.50335294,11279929116,49.726562
11279931355,-0.8566305,10.336994,0.07178468,11279931355,0.08307768,0.3811799,0.5021312,11279931355,49.726562
11279933593,-0.8662018,10.30828,0.062213387,11279933593,0.080634214,0.37873647,0.49846604,11279933593,49.726562
11279935832,-0.86141616,10.289138,0.10049855,11279935832,0.081855945,0.37873647,0.49602258,11279935832,49.726562
11279938090,-0.81834537,10.322637,0.14356937,11279938090,0.080634214,0.38240165,0.49235737,11279938090,49.726562
11279940328,-0.7704889,10.3848505,0.13878371,11279940328,0.08307768,0.38240165,0.49113566,11279940328,49.726562
11279942567,-0.7848458,10.332209,0.14356937,11279942567,0.07941248,0.3848451,0.4886922,11279942567,49.742188
11279944806,-0.8135597,10.303494,0.16271193,11279944806,0.07696902,0.3885103,0.4886922,11279944806,49.742188
11279947045,-0.83748794,10.298709,0.14356937,11279947045,0.07574729,0.38973203,0.4886922,11279947045,49.742188
11279949280,-0.83748794,10.27478,0.13878371,11279949280,0.07574729,0.39584067,0.48624873,11279949280,49.742188
11279951519,-0.80877405,10.265209,0.12921242,11279951519,0.07696902,0.39584067,0.4801401,11279951519,49.742188
11279953758,-0.7465607,10.289138,0.10049855,11279953758,0.080634214,0.3933972,0.4728097,11279953758,49.742188
11279955996,-0.7178468,10.322637,0.124426775,11279955996,0.080634214,0.39461896,0.46914452,11279955996,49.742188
11279958246,-0.66999036,10.327422,0.12921242,11279958246,0.07819075,0.39706242,0.46914452,11279958246,49.742188
11279960485,-0.6652047,10.317851,0.13878371,11279960485,0.07819075,0.39828414,0.46914452,11279960485,49.79297
11279962723,-0.6891329,10.313066,0.124426775,11279962723,0.07941248,0.4007276,0.4642576,11279962723,49.79297
11279964962,-0.6939186,10.303494,0.076570325,11279964962,0.07941248,0.4007276,0.45814893,11279964962,49.79297
11279967677,-0.66999036,10.27478,0.10049855,11279967677,0.07819075,0.39950588,0.45204028,11279967677,49.79297
11279969450,-0.6269195,10.293923,0.06699903,11279969450,0.080634214,0.40194935,0.4447099,11279969450,49.79297
11279971689,-0.59342,10.375279,0.043070808,11279971689,0.081855945,0.39950588,0.43982297,11279971689,49.79297
11279973928,-0.5694918,10.41835,0.033499517,11279973928,0.08674286,0.4007276,0.43493605,11279973928,49.79297
11279976166,-0.57906306,10.461421,0.019142581,11279976166,0.087964594,0.40439278,0.43127087,11279976166,49.79297
11279978423,-0.6029913,10.470992,0.009571291,11279978423,0.08552113,0.40317106,0.42638394,11279978423,49.73047
11279980662,-0.6221339,10.432707,-0.0047856453,11279980662,0.08307768,0.40317106,0.4202753,11279980662,49.73047
11279982900,-0.63170516,10.437492,0.014356935,11279982900,0.081855945,0.40561453,0.4129449,11279982900,49.73047
11279985139,-0.5838487,10.451849,0.009571291,11279985139,0.07941248,0.4092797,0.408058,11279985139,49.73047
11279987679,-0.59342,10.485349,0.038285162,11279987679,0.07819075,0.41172317,0.39950588,11279987679,49.73047
11279989615,-0.5407779,10.447063,0.02871387,11279989615,0.07452556,0.4092797,0.3933972,11279989615,49.73047
11279991854,-0.53599226,10.451849,0.06699903,11279991854,0.073303826,0.41172317,0.3885103,11279991854,49.73047
11279994093,-0.5407779,10.413564,0.06699903,11279994093,0.0720821,0.4129449,0.38362336,11279994093,49.73047
11279996332,-0.5455636,10.41835,0.076570325,11279996332,0.06963864,0.41050145,0.37507126,11279996332,49.742188
11279998577,-0.5407779,10.389636,0.124426775,11279998577,0.064751714,0.41172317,0.36896262,11279998577,49.742188
11280000816,-0.52163535,10.34178,0.09092726,11280000816,0.06352998,0.41172317,0.36041048,11280000816,49.742188
11280003055,-0.53599226,10.293923,0.11006984,11280003055,0.06352998,0.41050145,0.3555236,11280003055,49.742188
11280005294,-0.526421,10.293923,0.148355,11280005294,0.064751714,0.4092797,0.34697145,11280005294,49.742188
11280007652,-0.52163535,10.336994,0.18664017,11280007652,0.06352998,0.4092797,0.3408628,11280007652,49.742188
11280009798,-0.5168497,10.356136,0.20578274,11280009798,0.058643065,0.408058,0.33353242,11280009798,49.742188
11280012037,-0.4881358,10.403993,0.23449662,11280012037,0.056199603,0.408058,0.32620203,11280012037,49.742188
11280014276,-0.4977071,10.461421,0.22013968,11280014276,0.05375614,0.40683624,0.31764993,11280014276,49.703125
11280016514,-0.47856453,10.4566345,0.2105684,11280016514,0.052534413,0.4092797,0.3115413,11280016514,49.703125
11280018744,-0.47377887,10.466207,0.19621146,11280018744,0.05009095,0.408058,0.3042109,11280018744,49.703125
11280020982,-0.5312066,10.437492,0.19142582,11280020982,0.047647487,0.41538838,0.30298916,11280020982,49.703125
11280023221,-0.5455636,10.427921,0.19142582,11280023221,0.05497787,0.41172317,0.29565877,11280023221,49.703125
11280025460,-0.55513483,10.351351,0.20578274,11280025460,0.05375614,0.41172317,0.28588495,11280025460,49.703125
11280027716,-0.55034924,10.356136,0.18664017,11280027716,0.052534413,0.41416663,0.27977628,11280027716,49.703125
11280029955,-0.526421,10.394422,0.21535404,11280029955,0.052534413,0.4166101,0.2724459,11280029955,49.703125
11280032194,-0.5312066,10.490134,0.21535404,11280032194,0.05009095,0.4166101,0.26511553,11280032194,49.695312
11280034433,-0.4833502,10.490134,0.18185452,11280034433,0.04642576,0.41783184,0.25900686,11280034433,49.695312
11280036672,-0.4977071,10.49492,0.11964113,11280036672,0.04153884,0.4202753,0.25411993,11280036672,49.695312
11280038906,-0.5168497,10.57149,0.08135597,11280038906,0.035430185,0.42394048,0.24801129,11280038906,49.695312
11280041145,-0.4833502,10.57149,0.02871387,11280041145,0.030543262,0.42760566,0.23945917,11280041145,49.695312
11280043384,-0.5072784,10.490134,0.019142581,11280043384,0.03176499,0.4288274,0.2321288,11280043384,49.695312
11280045622,-0.5694918,10.547563,-0.062213387,11280045622,0.032986723,0.42760566,0.22479841,11280045622,49.695312
11280047876,-0.6364908,10.284351,0.047856454,11280047876,0.02687807,0.43249258,0.22602014,11280047876,49.695312
11280050115,-0.7322037,10.370493,-0.08135597,11280050115,0.02443461,0.43493605,0.21991149,11280050115,49.726562
11280052353,-0.81834537,9.958928,0.21535404,11280052353,0.021991149,0.43860126,0.21380283,11280052353,49.726562
11280054592,-0.79441714,10.0163555,0.023928227,11280054592,0.018325957,0.44226643,0.21013765,11280054592,49.726562
11280056831,-0.72263247,10.5284195,-0.1052842,11280056831,0.015882496,0.44959682,0.20158553,11280056831,49.726562
11280059089,-0.7082755,9.614362,1.1246266,11280059089,0.008552114,0.44959682,0.19303341,11280059089,49.726562
11280061328,-0.5694918,10.073783,-0.29671,11280061328,0.002443461,0.44959682,0.18936823,11280061328,49.726562
11280063567,-0.3397808,10.370493,-0.32063824,11280063567,-0.0036651916,0.45204028,0.18448131,11280063567,49.726562
11280065806,-0.38763726,10.188639,0.15314065,11280065806,-0.007330383,0.44837508,0.17837265,11280065806,49.726562
11280068039,-0.5838487,10.5284195,0.15792629,11280068039,-0.009773844,0.45204028,0.17959438,11280068039,49.742188
11280070278,-0.6843473,10.451849,0.29192436,11280070278,-0.009773844,0.44837508,0.1685988,11280070278,49.742188
11280072517,-0.75613195,10.4566345,0.31585258,11280072517,-0.010995574,0.44715336,0.15760323,11280072517,49.742188
11280074755,-0.6652047,10.317851,0.7704889,11280074755,-0.007330383,0.44837508,0.14905111,11280074755,49.742188
11280076994,-0.4642076,10.19821,0.35413775,11280076994,-0.0061086523,0.44348818,0.13683382,11280076994,49.742188
11280079254,-0.49292147,10.4566345,0.16749759,11280079254,-0.007330383,0.44837508,0.13194689,11280079254,49.742188
11280081493,-0.22013968,10.164711,0.2536392,11280081493,-0.008552114,0.4447099,0.13072516,11280081493,49.742188
11280083731,-0.4881358,10.293923,0.047856454,11280083731,-0.014660766,0.4447099,0.12461651,11280083731,49.742188
11280085970,-0.38763726,10.226924,0.13399807,11280085970,-0.015882496,0.44348818,0.119729586,11280085970,49.695312
11280088218,-0.7752745,10.485349,0.4546363,11280088218,-0.018325957,0.44348818,0.112399206,11280088218,49.695312
11280090457,-0.81834537,10.30828,1.1437693,11280090457,-0.02076942,0.44348818,0.10751228,11280090457,49.695312
11280092695,-0.66041905,10.102497,0.64606214,11280092695,-0.015882496,0.44348818,0.095294975,11280092695,49.695312
11280094934,-0.6029913,10.710274,0.21535404,11280094934,-0.013439035,0.44593164,0.081855945,11280094934,49.695312
11280097638,-0.4642076,10.427921,0.7513463,11280097638,-0.013439035,0.44226643,0.07696902,11280097638,49.695312
11280099411,-0.47377887,10.662417,0.32542387,11280099411,-0.019547688,0.44593164,0.07696902,11280099411,49.695312
11280101650,-0.5599205,10.691132,0.2009971,11280101650,-0.021991149,0.44226643,0.07574729,11280101650,49.695312
11280103889,-0.70348984,10.427921,0.24885355,11280103889,-0.028099801,0.44348818,0.06963864,11280103889,49.75
11280106127,-0.75613195,10.380065,0.3397808,11280106127,-0.028099801,0.44348818,0.064751714,11280106127,49.75
11280108383,-0.75613195,10.155139,0.3924229,11280108383,-0.02687807,0.44348818,0.05375614,11280108383,49.75
11280110621,-0.8039884,10.284351,0.44985065,11280110621,-0.019547688,0.45081854,0.05009095,11280110621,49.75
11280112860,-0.79920274,10.207782,0.526421,11280112860,-0.013439035,0.45570546,0.04642576,11280112860,49.75
11280115099,-0.76570326,10.279566,0.6939186,11280115099,-0.012217305,0.4642576,0.042760566,11280115099,49.75
11280117638,-0.7800602,10.370493,0.5838487,11280117638,-0.015882496,0.4654793,0.037873644,11280117638,49.75
11280119574,-0.72263247,10.427921,0.5886344,11280119574,-0.02565634,0.4642576,0.032986723,11280119574,49.75
11280121813,-0.6364908,10.504492,0.55513483,11280121813,-0.036651913,0.4654793,0.028099801,11280121813,49.75
11280124052,-0.70348984,10.4566345,0.38763726,11280124052,-0.04153884,0.46181414,0.02565634,11280124052,49.75
11280126291,-0.74177504,10.490134,0.31585258,11280126291,-0.04520403,0.4605924,0.02321288,11280126291,49.75
11280128556,-0.81834537,10.427921,0.35413775,11280128556,-0.040317107,0.45814893,0.02321288,11280128556,49.75
11280130795,-0.9619147,10.365707,0.42592242,11280130795,-0.030543262,0.45814893,0.02076942,11280130795,49.75
11280133034,-0.9667004,10.322637,0.4642076,11280133034,-0.02443461,0.45570546,0.013439035,11280133034,49.75
11280135273,-0.9619147,10.375279,0.5455636,11280135273,-0.015882496,0.45814893,0.007330383,11280135273,49.75
11280137643,-0.9284152,10.4566345,0.6556334,11280137643,-0.019547688,0.45204028,0,11280137643,49.75
11280139742,-0.8039884,10.57149,0.6412765,11280139742,-0.028099801,0.44837508,-0.0012217305,11280139742,49.6875
11280141981,-0.80877405,10.585847,0.5838487,11280141981,-0.035430185,0.4447099,0.002443461,11280141981,49.6875
11280144220,-0.90448695,10.5284195,0.5982057,11280144220,-0.040317107,0.43982297,0.004886922,11280144220,49.6875
11280146459,-1.0145568,10.552348,0.55513483,11280146459,-0.04520403,0.43860126,0.008552114,11280146459,49.6875
11280148718,-1.1437693,10.619347,0.4977071,11280148718,-0.04520403,0.4361578,0.0061086523,11280148718,49.6875
11280150957,-1.18684,10.600204,0.45942193,11280150957,-0.039095376,0.43127087,0,11280150957,49.6875
11280153196,-1.0911272,10.619347,0.526421,11280153196,-0.039095376,0.42638394,-0.008552114,11280153196,49.6875
11280155435,-0.9667004,10.686346,0.5168497,11280155435,-0.032986723,0.42394048,-0.008552114,11280155435,49.6875
11280157667,-0.94755775,10.710274,0.60777694,11280157667,-0.029321533,0.42149702,-0.004886922,11280157667,49.742188
11280159906,-0.98584294,10.662417,0.66999036,11280159906,-0.02687807,0.41783184,0.0012217305,11280159906,49.742188
11280162144,-1.0671989,10.667203,0.6891329,11280162144,-0.029321533,0.4129449,0.004886922,11280162144,49.742188
11280164383,-1.2011969,10.63849,0.6891329,11280164383,-0.029321533,0.4092797,0.0036651916,11280164383,49.742188
11280166622,-1.2442678,10.581061,0.66999036,11280166622,-0.036651913,0.4092797,0.0012217305,11280166622,49.742188
11280168884,-1.2107682,10.628919,0.59342,11280168884,-0.037873644,0.40317106,-0.004886922,11280168884,49.742188
11280171122,-1.1294123,10.633704,0.5168497,11280171122,-0.036651913,0.40194935,-0.004886922,11280171122,49.742188
11280173361,-1.1150553,10.600204,0.47856453,11280173361,-0.037873644,0.39950588,-0.0012217305,11280173361,49.742188
11280175600,-1.1389836,10.590633,0.47377887,11280175600,-0.030543262,0.39461896,0.002443461,11280175600,49.734375
11280177838,-1.2107682,10.63849,0.47377887,11280177838,-0.028099801,0.3933972,0.008552114,11280177838,49.734375
11280180077,-1.282553,10.671989,0.5312066,11280180077,-0.02321288,0.3885103,0.007330383,11280180077,49.734375
11280182315,-1.2873386,10.6815605,0.5838487,11280182315,-0.02321288,0.38728857,0.004886922,11280182315,49.734375
11280184554,-1.2394822,10.71506,0.60777694,11280184554,-0.02443461,0.38606682,0.0012217305,11280184554,49.734375
11280186793,-1.1820544,10.782059,0.5982057,11280186793,-0.02687807,0.38606682,0.002443461,11280186793,49.734375
11280189057,-1.1676974,10.772488,0.5455636,11280189057,-0.030543262,0.38362336,0.007330383,11280189057,49.734375
11280191296,-1.1724831,10.729417,0.4881358,11280191296,-0.028099801,0.38240165,0.012217305,11280191296,49.734375
11280193535,-1.2777673,10.6815605,0.44985065,11280193535,-0.02443461,0.38240165,0.018325957,11280193535,49.726562
11280195774,-1.3830515,10.705488,0.42592242,11280195774,-0.018325957,0.38362336,0.018325957,11280195774,49.726562
11280198001,-1.4261223,10.748559,0.44027936,11280198001,-0.012217305,0.38240165,0.017104227,11280198001,49.726562
11280200240,-1.402194,10.758131,0.41156548,11280200240,-0.009773844,0.38240165,0.013439035,11280200240,49.726562
11280202479,-1.3591232,10.777273,0.4354937,11280202479,-0.0036651916,0.37751472,0.017104227,11280202479,49.726562
11280204717,-1.3208381,10.8682,0.4546363,11280204717,0.004886922,0.37995818,0.019547688,11280204717,49.726562
11280206956,-1.3399807,10.916057,0.47856453,11280206956,0.0036651916,0.37751472,0.02687807,11280206956,49.726562
11280209206,-1.3782659,10.887343,0.44027936,11280209206,0.0036651916,0.37507126,0.03176499,11280209206,49.726562
11280211445,-1.4069797,10.844273,0.37806597,11280211445,0.008552114,0.37384954,0.032986723,11280211445,49.726562
11280213684,-1.4452649,10.872986,0.3924229,11280213684,0.012217305,0.37018433,0.035430185,11280213684,49.726562
11280215923,-1.4452649,10.9352,0.34456646,11280215923,0.014660766,0.36896262,0.036651913,11280215923,49.726562
11280218164,-1.430908,11.016556,0.33020952,11280218164,0.02321288,0.36774087,0.037873644,11280218164,49.726562
11280220403,-1.430908,11.069198,0.3062813,11280220403,0.028099801,0.37018433,0.042760566,11280220403,49.726562
11280222642,-1.4117653,11.097912,0.28235307,11280222642,0.034208454,0.3640757,0.047647487,11280222642,49.726562
11280224881,-1.4213367,11.035698,0.24885355,11280224881,0.040317107,0.36163223,0.052534413,11280224881,49.726562
11280227119,-1.4261223,10.978271,0.22013968,11280227119,0.043982297,0.35918877,0.057421334,11280227119,49.726562
11280229384,-1.5026926,11.006984,0.2440679,11280229384,0.047647487,0.3567453,0.059864793,11280229384,49.76172
11280231623,-1.5218352,10.978271,0.2440679,11280231623,0.05375614,0.35185838,0.06352998,11280231623,49.76172
11280233862,-1.5409778,11.026127,0.29671,11280233862,0.056199603,0.35185838,0.06841691,11280233862,49.76172
11280236100,-1.5553347,11.064412,0.26799613,11280236100,0.05375614,0.35063666,0.06963864,11280236100,49.76172
11280238332,-1.6079768,11.069198,0.32542387,11280238332,0.057421334,0.34330627,0.07696902,11280238332,49.76172
11280240571,-1.6366907,11.078769,0.3397808,11280240571,0.059864793,0.33964106,0.0842994,11280240571,49.76172
11280242810,-1.6414764,11.040483,0.32063824,11280242810,0.057421334,0.33475417,0.09040806,11280242810,49.76172
11280245049,-1.6606189,11.002198,0.40677986,11280245049,0.062308256,0.33475417,0.096516706,11280245049,49.76172
11280247642,-1.6462619,11.040483,0.4354937,11280247642,0.06352998,0.3323107,0.1001819,11280247642,49.73828
11280249555,-1.6510476,11.107483,0.5312066,11280249555,0.062308256,0.32498032,0.10751228,11280249555,49.73828
11280251794,-1.6079768,11.078769,0.55513483,11280251794,0.059864793,0.32498032,0.11362094,11280251794,49.73828
11280254032,-1.5984055,10.992627,0.6412765,11280254032,0.061086524,0.3200934,0.12095132,11280254032,49.73828
