accelerationTimestamp,accelerationX,accelerationY,accelerationZ,angularSpeedTimestamp,angularSpeedX,angularSpeedY,angularSpeedZ,temperatureTimestamp,temperature
11277841810,-2.1164517,13.53859,0.44745782,11277841810,-0.11056661,-0.9297369,0.27672195,11277841810,49.507812
11277850641,-2.0195422,13.447663,0.2883351,11277850641,-0.053145275,-0.93645644,0.28344148,11277850641,49.48828
11277859503,-2.0003998,13.296915,0.1052842,11277859503,-0.02687807,-0.9297369,0.29443705,11277859503,49.48828
11277868343,-1.9417756,13.153346,0.1591227,11277868343,-0.0061086523,-0.9095783,0.3042109,11277868343,49.51172
11277877187,-1.8388842,12.934402,0.104087785,11277877187,-0.004276057,-0.88453287,0.3145956,11277877187,49.51172
11277886037,-1.7647067,13.026526,-0.021535404,11277886037,-0.007330383,-0.8539896,0.3231477,11277886037,49.539062
11277894902,-1.678565,13.147364,-0.3074777,11277894902,-0.015271631,-0.8228355,0.3286455,11277894902,49.539062
11277903735,-1.599602,13.103097,-0.41515473,11277903735,-0.030543262,-0.7819075,0.3323107,11277903735,49.515625
11277912586,-1.5577276,13.142578,-0.34576288,11277912586,-0.077579886,-0.73548174,0.3371976,11277912586,49.515625
11277921448,-1.4189439,13.189239,-0.36610186,11277921448,-0.14049901,-0.68294734,0.34025195,11277921448,49.48047
11277930299,-1.3818551,13.066008,-0.22492532,11277930299,-0.20463985,-0.6218608,0.34391713,11277930299,49.48047
11277939128,-1.4380864,13.127025,-0.32662028,11277939128,-0.27672195,-0.5552765,0.34697145,11277939128,49.5
11277948042,-1.5481563,13.066008,-0.6053841,11277948042,-0.3463606,-0.4868596,0.35246924,11277948042,49.5
11277956840,-1.4907285,12.9643135,-0.7812566,11277956840,-0.4147775,-0.4147775,0.3622431,11277956840,49.51953
11277965686,-1.6438692,12.784851,-0.9846465,11277965686,-0.48808134,-0.3378085,0.37568212,11277965686,49.51953
11277974541,-1.4608182,12.800405,-1.1569297,11277974541,-0.5558874,-0.25717425,0.38606682,11277974541,49.48047
11277983371,-1.5529419,12.723834,-1.1964114,11277983371,-0.6218608,-0.18203785,0.39461896,11277983371,49.48047
11277992224,-1.6474584,12.770494,-1.160519,11277992224,-0.6835582,-0.09101892,0.40194935,11277992224,49.492188
11278001074,-1.4321043,12.839887,-1.2011969,11278001074,-0.7489208,0.005497787,0.40866885,11278001074,49.492188
11278009934,-1.4057833,12.774084,-1.026521,11278009934,-0.8014552,0.09468412,0.41355577,11278009934,49.492188
11278018765,-1.422533,12.870993,-0.80518484,11278018765,-0.8594874,0.18997909,0.4098906,11278018765,49.492188
11278027609,-1.4500505,12.760923,-0.701097,11278027609,-0.9114109,0.2773328,0.41416663,11278027609,49.507812
11278036461,-1.4297116,12.65205,-0.40797627,11278036461,-0.9492846,0.35369098,0.40561453,11278036461,49.507812
11278045309,-1.4249259,12.660424,-0.33738798,11278045309,-0.99021256,0.4202753,0.40561453,11278045309,49.507812
11278054174,-1.2586247,12.869797,-0.2009971,11278054174,-1.0036516,0.48624873,0.3903429,11278054174,49.507812
11278063016,-1.5002998,12.826726,-0.38285163,11278063016,-1.0238101,0.54367006,0.38240165,11278063016,49.51172
11278071875,-1.6450655,12.671192,-0.21296121,11278071875,-1.024421,0.6035349,0.36651915,11278071875,49.51172
11278080720,-1.7204394,13.026526,-0.16749759,11278080720,-1.03786,0.6597345,0.36285394,11278080720,49.515625
11278089558,-1.7491534,13.1282215,-0.21774685,11278089558,-1.0482447,0.7049385,0.35979962,11278089558,49.515625
11278098404,-1.8173488,13.238292,-0.02632105,11278098404,-1.0451905,0.7464773,0.36041048,11278098404,49.507812
11278107248,-1.6366907,13.423735,0.26799613,11278107248,-1.0506883,0.77457714,0.35430184,11278107248,49.507812
11278116113,-1.7503498,13.1282215,0.317049,11278116113,-1.029308,0.8020661,0.34574974,11278116113,49.507812
11278124962,-1.6677973,13.00858,0.41874397,11278124962,-1.006095,0.83016586,0.34025195,11278124962,49.507812
11278133799,-1.4811572,13.347165,0.4546363,11278133799,-0.9914343,0.8552113,0.32070425,11278133799,49.507812
11278142664,-1.5098711,13.106686,0.50129634,11278142664,-0.9584476,0.8772025,0.3109304,11278142664,49.507812
11278151506,-1.4859428,12.900904,0.6329016,11278151506,-0.915687,0.89980453,0.28955013,11278151506,49.496094
11278160350,-1.6342978,12.996616,0.65922266,11278160350,-0.88453287,0.91813046,0.28160888,11278160350,49.496094
11278169202,-1.6175481,12.985848,0.8566305,11278169202,-0.8436049,0.93401295,0.26511553,11278169202,49.492188
11278178174,-1.666601,12.887743,1.1581261,11278178174,-0.80756384,0.9419542,0.25900686,11278178174,49.492188
11278186903,-1.5840486,12.837494,1.3016955,11278186903,-0.77274454,0.9407325,0.24984388,11278186903,49.51953
11278195747,-1.6749759,12.716656,1.396212,11278195747,-0.7275405,0.93218035,0.24495697,11278195747,49.51953
11278198703,-1.7048861,12.668799,1.3543376,11278198703,-0.6817256,0.91813046,0.23762658,11278198703,49.48828
11278213433,-1.774278,12.559926,1.3447664,11278213433,-0.63713247,0.89980453,0.23762658,11278213433,49.48828
11278222297,-1.6654046,12.494123,1.3316058,11278222297,-0.5876524,0.8765916,0.23701571,11278222297,49.51953
11278231139,-1.6761723,12.272787,1.3124632,11278231139,-0.54183745,0.8558222,0.23640485,11278231139,49.51953
11278239990,-1.5481563,12.11845,1.2957134,11278239990,-0.48991394,0.8332202,0.23457226,11278239990,49.503906
11278248835,-1.4727824,12.014362,1.3304094,11278248835,-0.44409904,0.81245077,0.22785273,11278248835,49.503906
11278257679,-1.3806586,12.072987,1.3016955,11278257679,-0.39278635,0.79412484,0.21563543,11278257679,49.507812
11278266525,-1.5158532,12.04188,1.1904292,11278266525,-0.34208453,0.77396625,0.204029,11278266525,49.507812
11278275378,-1.5290136,12.236895,1.0851451,11278275378,-0.30115658,0.75319684,0.19181168,11278275378,49.527344
11278284233,-1.7060826,12.248859,0.9212367,11278284233,-0.26633725,0.7330383,0.18936823,11278284233,49.527344
11278293082,-1.698904,12.259626,0.83389866,11278293082,-0.23640485,0.7153232,0.18997909,11278293082,49.496094
11278301939,-1.7623138,12.318251,0.701097,11278301939,-0.21380283,0.70188415,0.19853121,11278301939,49.496094
11278310779,-1.7419748,12.276377,0.5455636,11278310779,-0.19181168,0.6933321,0.20525073,11278310779,49.507812
11278319624,-1.753939,12.038291,0.45942193,11278319624,-0.16676621,0.6927212,0.21197024,11278319624,49.507812
11278328486,-1.753939,12.034701,0.34576288,11278328486,-0.1459968,0.6963864,0.22052236,11278328486,49.507812
11278337330,-1.7312071,12.142379,0.20338993,11278337330,-0.12767084,0.70005155,0.2284636,11278337330,49.507812
11278346166,-1.605584,12.071791,0.04546363,11278346166,-0.11178834,0.70249504,0.23457226,11278346166,49.54297
11278355025,-1.5744773,12.149557,-0.009571291,11278355025,-0.10751228,0.70249504,0.23640485,11278355025,49.54297
11278363877,-1.4715859,12.201003,-0.11724831,11278363877,-0.106901415,0.70371675,0.23579398,11278363877,49.503906
11278372719,-1.4213367,12.082558,-0.10289137,11278372719,-0.10751228,0.70921457,0.23579398,11278372719,49.503906
11278381569,-1.329213,12.150753,-0.18783657,11278381569,-0.12095132,0.7098254,0.2302962,11278381569,49.5
11278390421,-1.4404793,12.074183,-0.24646074,11278390421,-0.12339478,0.71776664,0.22602014,11278390421,49.5
11278399270,-1.3842479,12.035898,-0.34097722,11278399270,-0.12889257,0.73731434,0.22052236,11278399270,49.507812
11278408118,-1.3818551,11.972488,-0.53240305,11278408118,-0.1441642,0.75136423,0.21991149,11278408118,49.507812
11278416961,-1.4081762,11.9102745,-0.56590253,11278416961,-0.16676621,0.7690793,0.2180789,11278416961,49.527344
11278425808,-1.3423735,11.771491,-0.46779683,11278425808,-0.19914207,0.7849618,0.21685717,11278425808,49.527344
11278434658,-1.3064811,11.721242,-0.41874397,11278434658,-0.22968534,0.8002335,0.21319197,11278434658,49.515625
11278443517,-1.3124632,11.706884,-0.40438703,11278443517,-0.26267207,0.8155051,0.20769419,11278443517,49.515625
11278452361,-1.2909278,11.691332,-0.48095736,11278452361,-0.29810223,0.82772243,0.20097467,11278452361,49.539062
11278461213,-1.2071791,11.58844,-0.64247286,11278461213,-0.34147367,0.8399397,0.19181168,11278461213,49.539062
11278470057,-1.0683953,11.647064,-0.75254273,11278470057,-0.38545597,0.8558222,0.18142697,11278470057,49.507812
11278478904,-1.0851451,11.712867,-0.9487542,11278478904,-0.43799037,0.8723156,0.16920967,11278478904,49.507812
11278487748,-1.0683953,11.6351,-0.95353985,11278487748,-0.48075095,0.88697636,0.15149458,11278487748,49.515625
11278496591,-1.1473584,11.680564,-0.7848458,11278496591,-0.5271767,0.8943067,0.13683382,11278496591,49.515625
11278505452,-1.1641082,11.55853,-0.74416786,11278505452,-0.5681047,0.9016371,0.12034045,11278505452,49.496094
11278514292,-1.2526426,11.38505,-0.63888365,11278514292,-0.59437186,0.9095783,0.10995574,11278514292,49.496094
11278523154,-1.3351951,11.322837,-0.68075806,11278523154,-0.6218608,0.915687,0.09896017,11278523154,49.492188
11278531984,-1.3052847,11.229517,-0.66161543,11278531984,-0.6407976,0.91813046,0.09101892,11278531984,49.492188
11278540838,-1.288535,11.0811615,-0.58624154,11278540838,-0.6621779,0.9211848,0.08307768,11278540838,49.51953
11278549688,-1.2693924,11.119447,-0.53240305,11278549688,-0.68416905,0.92057395,0.07391469,11278549688,49.51953
11278558548,-1.3208381,10.8682,-0.53359944,11278558548,-0.6957755,0.915687,0.064751714,11278558548,49.48047
11278567392,-1.2502499,10.735399,-0.41156548,11278567392,-0.70249504,0.9059132,0.050701816,11278567392,49.48047
11278576226,-1.2203395,10.820344,-0.39601216,11278576226,-0.72143185,0.8875872,0.036651913,11278576226,49.492188
11278585092,-1.2418749,10.771291,-0.26799613,11278585092,-0.7312057,0.86498517,0.018936822,11278585092,49.492188
11278593941,-1.2753744,10.669596,-0.10767702,11278593941,-0.73914695,0.8417723,0.005497787,11278593941,49.5
11278602784,-1.39023,10.642078,-0.0035892338,11278602784,-0.7470882,0.8191703,-0.0030543262,11278602784,49.5
11278611628,-1.442872,10.717453,0.0741775,11278611628,-0.7458665,0.7965683,-0.01160644,11278611628,49.476562
11278620493,-1.5457634,10.557134,0.13040884,11278620493,-0.73731434,0.77457714,-0.01160644,11278620493,49.476562
11278629321,-1.4608182,10.602597,0.12323037,11278629321,-0.72204274,0.7495316,-0.01282817,11278629321,49.51953
11278638201,-1.5337993,10.610972,0.08135597,11278638201,-0.7086037,0.7244862,-0.01038471,11278638201,49.51953
11278647022,-1.4967105,10.652846,0.19262223,11278647022,-0.6963864,0.6927212,-0.01282817,11278647022,49.507812
11278655871,-1.5756737,10.69831,0.33499518,11278655871,-0.6939429,0.6560693,-0.009162978,11278655871,49.507812
11278664726,-1.5541383,10.6205435,0.485743,11278664726,-0.6927212,0.61758476,-0.0061086523,11278664726,49.507812
11278673570,-1.6019948,10.5690975,0.61016977,11278673570,-0.68783426,0.57910025,-0.0018325958,11278673570,49.507812
11278682415,-1.6079768,10.683953,0.6652047,11278682415,-0.68416905,0.5412266,0.004886922,11278682415,49.503906
11278691270,-1.6534405,10.610972,0.6664011,11278691270,-0.66645396,0.50335294,0.01160644,11278691270,49.503906
11278700126,-1.7551354,10.663614,0.6448657,11278700126,-0.64934975,0.4605924,0.02443461,11278700126,49.527344
11278708965,-1.7324036,10.670793,0.5946164,11278708965,-0.6230826,0.4092797,0.034208454,11278708965,49.527344
11278717809,-1.8041883,10.581061,0.6963114,11278717809,-0.59131753,0.35735616,0.051923547,11278717809,49.503906
11278726658,-1.7922242,10.5487585,0.6855437,11278726658,-0.5626069,0.30543262,0.065973446,11278726658,49.503906
11278735501,-1.8652053,10.374083,0.7178468,11278735501,-0.51923543,0.25289822,0.084910266,11278735501,49.51953
11278744356,-1.7682959,10.4351,0.7537391,11278744356,-0.48441613,0.20280726,0.1001819,11278744356,49.51953
11278753219,-1.7694924,10.3681,0.6735796,11278753219,-0.46181414,0.1600467,0.1160644,11278753219,49.515625
11278762068,-1.7120646,10.24846,0.7405786,11278762068,-0.43249258,0.12583824,0.1301143,11278762068,49.515625
11278770919,-1.7108682,10.226924,0.7680961,11278770919,-0.41722095,0.09590584,0.14477506,11278770919,49.503906
11278779767,-1.6833507,10.229317,0.7477571,11278779767,-0.40194935,0.06536258,0.15882497,11278779767,49.503906
11278788598,-1.68694,10.193424,0.6687939,11278788598,-0.38789943,0.03604105,0.17165314,11278788598,49.476562
11278797442,-1.6701902,10.106087,0.46660042,11278797442,-0.37568212,0.01038471,0.18692477,11278797442,49.476562
11278806307,-1.6558332,10.070194,0.37208393,11278806307,-0.3622431,-0.013439035,0.20158553,11278806307,49.51953
11278815148,-1.6522441,9.993624,0.3589234,11278815148,-0.3475823,-0.03726278,0.21746802,11278815148,49.51953
11278824006,-1.6462619,9.95175,0.40438703,11278824006,-0.32925636,-0.057421334,0.2321288,11278824006,49.503906
11278832850,-1.6331015,9.823733,0.41156548,11278832850,-0.30604348,-0.076358154,0.24495697,11278832850,49.503906
11278841701,-1.550549,9.741181,0.44865423,11278841701,-0.27366763,-0.09468412,0.25411993,11278841701,49.5
11278850545,-1.5110675,9.708878,0.48454657,11278850545,-0.2443461,-0.111177474,0.26083946,11278850545,49.5
11278859400,-1.4883357,9.582058,0.42592242,11278859400,-0.20952678,-0.12644911,0.26511553,11278859400,49.5
11278868236,-1.463211,9.523434,0.4103691,11278868236,-0.1826487,-0.13744467,0.26816985,11278868236,49.5
11278877079,-1.4464613,9.583255,0.43669012,11278877079,-0.1600467,-0.14538592,0.26939157,11278877079,49.51953
11278885932,-1.43689,9.47797,0.41156548,11278885932,-0.1386664,-0.14721853,0.2742785,11278885932,49.51953
11278894790,-1.3495519,9.521041,0.39481574,11278894790,-0.118507855,-0.14538592,0.27488935,11278894790,49.515625
11278903626,-1.2789637,9.489935,0.29312077,11278903626,-0.106901415,-0.14110987,0.27366763,11278903626,49.515625
11278912481,-1.1772687,9.515059,0.17108682,11278912481,-0.09712757,-0.13316862,0.2687807,11278912481,49.507812
11278921329,-1.1150553,9.432507,0.083748795,11278921329,-0.093462385,-0.12583824,0.26083946,11278921329,49.507812
11278930180,-1.0360922,9.49472,0.09930214,11278930180,-0.095294975,-0.116675265,0.24862215,11278930180,49.515625
11278939030,-1.0001999,9.643075,0.058624156,11278939030,-0.111177474,-0.103847094,0.23701571,11278939030,49.515625
11278956736,-0.9595219,9.830912,0.18424734,11278956736,-0.15149458,-0.054367006,0.21563543,11278956736,49.515625
11278965572,-1.0564312,9.8321085,0.22372891,11278965572,-0.1704314,-0.022602014,0.20891592,11278965572,49.496094
11278974420,-1.1210374,9.812965,0.23688944,11278974420,-0.18570304,0.007941248,0.20280726,11278974420,49.496094
11278983274,-1.1844472,9.777073,0.09930214,11278983274,-0.20097467,0.034208454,0.19975294,11278983274,49.507812
11278992120,-1.1030912,9.817751,-0.0023928226,11278992120,-0.21868975,0.06169739,0.19730948,11278992120,49.507812
11279000977,-1.0600204,9.847662,-0.09930214,11279000977,-0.2510656,0.09407325,0.19425514,11279000977,49.51172
11279009820,-1.1162517,9.833304,-0.09212367,11279009820,-0.27977628,0.13316862,0.19058995,11279009820,49.51172
11279018670,-1.0360922,9.815358,-0.050249275,11279018670,-0.31337386,0.17470746,0.18203785,11279018670,49.496094
11279027514,-1.0707881,9.786645,-0.033499517,11279027514,-0.3390302,0.21746802,0.18020524,11279027514,49.496094
11279036362,-1.026521,9.809377,0.016749758,11279036362,-0.35918877,0.25900686,0.17531833,11279036362,49.527344
11279045205,-1.0037891,9.755538,0.020338992,11279045205,-0.37507126,0.29932398,0.172264,11279045205,49.527344
11279054069,-0.99900347,9.82493,-0.03708875,11279054069,-0.38545597,0.3390302,0.16310102,11279054069,49.503906
11279062904,-1.0959128,9.730413,-0.13519448,11279062904,-0.3915646,0.37507126,0.15454891,11279062904,49.503906
11279071765,-1.1724831,9.491131,-0.034695927,11279071765,-0.39461896,0.408058,0.14477506,11279071765,49.5
11279080599,-1.0624132,9.712467,0.08853444,11279080599,-0.408058,0.43554693,0.13255776,11279080599,49.5
11279089449,-1.1784651,9.675379,0.21415763,11279089449,-0.42088616,0.46181414,0.12522738,11279089449,49.527344
11279098310,-0.997807,9.834501,0.46061835,11279098310,-0.41905355,0.49235737,0.1142318,11279098310,49.527344
11279107154,-1.1270195,9.549755,0.56470615,11279107154,-0.43371433,0.52534413,0.10934488,11279107154,49.507812
11279116012,-1.105484,9.603594,0.77407813,11279116012,-0.44165558,0.5589417,0.103847094,11279116012,49.507812
11279124858,-1.2430713,9.65145,0.9236295,11279124858,-0.4642576,0.59315014,0.108123146,11279124858,49.496094
11279133696,-1.3351951,9.568898,0.92243314,11279133696,-0.48258355,0.6291912,0.11362094,11279133696,49.496094
11279142559,-1.3950156,9.623933,0.85902333,11279142559,-0.49235737,0.66156703,0.12095132,11279142559,49.507812
11279151402,-1.4153546,9.65504,0.7118647,11279151402,-0.50518554,0.6872234,0.13133603,11279151402,49.507812
11279160237,-1.4739788,9.578469,0.6329016,11279160237,-0.5131268,0.7086037,0.13805555,11279160237,49.492188
11279169096,-1.5026926,9.550952,0.573081,11279169096,-0.5137377,0.7312057,0.14782938,11279169096,49.492188
11279177940,-1.5290136,9.585648,0.51565325,11279177940,-0.50946164,0.7495316,0.15699236,11279177940,49.492188
11279186781,-1.544567,9.543773,0.6161518,11279186781,-0.49357912,0.76174897,0.16554448,11279186781,49.492188
11279195632,-1.5230316,9.426525,0.7968099,11279195632,-0.47586402,0.77274454,0.17287487,11279195632,49.5
11279204494,-1.4787644,9.326026,0.9212367,11279204494,-0.44776422,0.77763146,0.1777618,11279204494,49.5
11279213329,-1.4548361,9.238688,0.9942178,11279213329,-0.40744713,0.77824235,0.18203785,11279213329,49.492188
11279222192,-1.4859428,9.219545,1.0073783,11279222192,-0.36102137,0.77640975,0.18448131,11279222192,49.492188
11279231035,-1.5529419,9.272188,1.0289137,11279231035,-0.3109304,0.77091193,0.18692477,11279231035,49.51172
11279239888,-1.6223338,9.160921,0.99302137,11279239888,-0.25045475,0.7641924,0.19058995,11279239888,49.51172
11279248731,-1.5948163,9.23151,1.0420742,11279248731,-0.19608775,0.75686204,0.19486602,11279248731,49.496094
11279257575,-1.6091732,9.27817,1.0277174,11279257575,-0.14966199,0.7501425,0.204029,11279257575,49.496094
11279266417,-1.5828521,9.164511,1.0660025,11279266417,-0.096516706,0.7464773,0.21502456,11279266417,49.51172
11279275266,-1.5816557,9.15135,1.1365907,11279275266,-0.047647487,0.74281216,0.22724187,11279275266,49.51172
11279284136,-1.5768701,9.262616,1.0648061,11279284136,-0.004276057,0.73853606,0.23762658,11279284136,49.515625
11279292967,-1.5613167,9.286545,0.9762716,11279292967,0.040317107,0.7367035,0.24984388,11279292967,49.515625
11279301814,-1.5050855,9.257831,0.8446664,11279301814,0.07574729,0.73364913,0.26083946,11279301814,49.523438
11279310665,-1.4883357,9.300901,0.77766734,11279310665,0.10995574,0.7330383,0.2724459,11279310665,49.523438
11279319517,-1.4452649,9.403793,0.76689965,11279319517,0.1386664,0.7324274,0.28038713,11279319517,49.48047
11279328369,-1.4476577,9.454042,0.7968099,11279328369,0.15515977,0.73364913,0.2919936,11279328369,49.48047
11279337213,-1.3016955,9.45165,0.86859465,11279337213,0.16737708,0.73792523,0.3005457,11279337213,49.5
11279346056,-1.2873386,9.401401,0.89730847,11279346056,0.17959438,0.7452556,0.30848694,11279346056,49.5
11279354920,-1.2107682,9.409775,0.8530413,11279354920,0.19853121,0.7501425,0.31215215,11279354920,49.476562
11279363757,-1.1593226,9.376275,0.7848458,11279363757,0.20952678,0.75808376,0.31337386,11279363757,49.476562
11279372611,-1.026521,9.372686,0.64965135,11279372611,0.21930063,0.766025,0.30970868,11279372611,49.492188
11279381460,-1.0253245,9.439685,0.5371887,11279381460,0.22113322,0.7733554,0.3036,11279381460,49.492188
11279390306,-1.0456635,9.438489,0.4331009,11279390306,0.22418754,0.7806858,0.29932398,11279390306,49.527344
11279399149,-1.0923235,9.454042,0.35174492,11279399149,0.22235495,0.7910705,0.2938262,11279399149,49.527344
11279407993,-1.119841,9.427721,0.27996024,11279407993,0.2180789,0.80573124,0.29260445,11279407993,49.507812
11279416861,-1.1126626,9.525827,0.22372891,11279416861,0.2125811,0.8222246,0.28955013,11279416861,49.507812
11279425696,-1.1581261,9.454042,0.124426775,11279425696,0.20769419,0.8393288,0.28893927,11279425696,49.507812
11279434560,-1.1102697,9.430114,0.039481573,11279434560,0.20525073,0.8539896,0.28221974,11279434560,49.507812
11279443399,-1.146162,9.383454,-0.0071784677,11279443399,0.19364429,0.8668178,0.2773328,11279443399,49.539062
11279452249,-1.0899308,9.327223,-0.034695927,11279452249,0.18509217,0.8765916,0.2706133,11279452249,49.539062
11279461090,-1.0947163,9.342776,0.021535404,11279461090,0.16982053,0.8857546,0.26511553,11279461090,49.496094
11279469956,-0.98943216,9.3511505,0.043070808,11279469956,0.15393804,0.8961393,0.25595254,11279469956,49.496094
11279478799,-1.0504491,9.314062,0.11964113,11279478799,0.13744467,0.9101892,0.24678956,11279478799,49.507812
11279487643,-1.0827522,9.250652,0.17467605,11279487643,0.115453534,0.91996306,0.23884831,11279487643,49.507812
11279496500,-1.0743774,9.194421,0.11844472,11279496500,0.096516706,0.9254609,0.22907446,11279496500,49.492188
11279505337,-1.1162517,9.206385,0.0526421,11279505337,0.077579886,0.9279043,0.22235495,11279505337,49.492188
11279514191,-1.099502,9.085547,-0.014356935,11279514191,0.06352998,0.9279043,0.21197024,11279514191,49.507812
11279523049,-1.1593226,9.092726,-0.016749758,11279523049,0.045814894,0.9236283,0.20463985,11279523049,49.507812
11279531891,-1.1521441,9.183653,-0.025124637,11279531891,0.030543262,0.91751957,0.19425514,11279531891,49.507812
11279540747,-1.2263216,9.022138,0.0047856453,11279540747,0.018936822,0.90408057,0.18753563,11279540747,49.507812
11279549580,-1.2107682,8.985049,0.09212367,11279549580,0.008552114,0.8943067,0.17837265,11279549580,49.507812
11279558433,-1.2466606,8.928818,0.083748795,11279558433,-0.0012217305,0.88514376,0.172264,11279558433,49.507812
11279567277,-1.2047862,9.0029955,0.09571291,11279567277,-0.005497787,0.87964594,0.16310102,11279567277,49.5
11279576139,-1.227518,9.036494,0.078963146,11279576139,-0.015882496,0.87598073,0.15577064,11279576139,49.5
11279584987,-1.2035898,9.016156,0.061016977,11279584987,-0.02076942,0.87109387,0.14782938,11279584987,49.5
11279593833,-1.2047862,9.038888,0.08135597,11279593833,-0.032375857,0.86498517,0.14049901,11279593833,49.5
11279602681,-1.1904292,9.069994,0.10049855,11279602681,-0.047036625,0.86132,0.13255776,11279602681,49.51172
11279611525,-1.2299109,9.080762,0.18903299,11279611525,-0.06780604,0.8546005,0.124005646,11279611525,49.51172
11279620369,-1.2705889,9.031709,0.22971097,11279620369,-0.08552113,0.84665924,0.119729586,11279620369,49.503906
11279629233,-1.2323036,9.092726,0.29072794,11279629233,-0.09712757,0.838718,0.112399206,11279629233,49.503906
11279638074,-1.3244274,9.136993,0.29312077,11279638074,-0.10934488,0.829555,0.10995574,11279638074,49.5
11279646917,-1.3866407,9.23151,0.28594232,11279646917,-0.11484267,0.816116,0.10751228,11279646917,49.5
11279655764,-1.4476577,9.218349,0.19381863,11279655764,-0.115453534,0.8020661,0.10751228,11279655764,49.460938
11279664613,-1.4739788,9.23151,0.101694964,11279664613,-0.10751228,0.788627,0.108123146,11279664613,49.460938
11279673468,-1.4679967,9.312865,0.050249275,11279673468,-0.103847094,0.7770206,0.10751228,11279673468,49.5
11279682306,-1.4907285,9.409775,0.015553347,11279682306,-0.09468412,0.7641924,0.10995574,11279682306,49.5
11279691165,-1.5194423,9.503095,0.05623133,11279691165,-0.08552113,0.7470882,0.11056661,11279691165,49.46875
11279700008,-1.5936198,9.537791,0.14117654,11279700008,-0.076358154,0.7263188,0.1160644,11279700008,49.46875
11279708870,-1.6498512,9.564112,0.2847459,11279708870,-0.06536258,0.7067711,0.124005646,11279708870,49.492188
11279717713,-1.7156538,9.552148,0.43908295,11279717713,-0.04886922,0.68294734,0.13500121,11279717713,49.492188
11279726563,-1.8233309,9.565309,0.5383851,11279726563,-0.028099801,0.6609562,0.15149458,11279726563,49.51953
11279735409,-1.847259,9.633504,0.5312066,11279735409,-0.005497787,0.63529986,0.16737708,11279735409,49.51953
11279744258,-1.847259,9.615558,0.5312066,11279744258,0.017715093,0.6096435,0.18997909,11279744258,49.523438
11279753106,-1.7838492,9.62154,0.48933223,11279753106,0.032375857,0.5864306,0.21074851,11279753106,49.523438
11279761956,-1.7838492,9.634701,0.4331009,11279761956,0.044593163,0.56077427,0.23273966,11279761956,49.503906
11279770790,-1.7060826,9.720842,0.40079778,11279770790,0.057421334,0.53878313,0.2510656,11279770790,49.503906
11279779646,-1.7635103,9.742377,0.46301118,11279779646,0.069027774,0.5204572,0.27183503,11279779646,49.5
11279788499,-1.7359928,9.789038,0.5886344,11279788499,0.07452556,0.5015204,0.29077184,11279788499,49.5
11279797343,-1.7826529,9.839287,0.63170516,11279797343,0.081855945,0.4831944,0.31337386,11279797343,49.5
11279806193,-1.7730815,9.960124,0.59342,11279806193,0.089186326,0.4642576,0.3359759,11279806193,49.5
11279815036,-1.7934206,10.006784,0.53240305,11279815036,0.09040806,0.45142943,0.35979962,11279815036,49.5
11279823889,-1.867598,10.135997,0.44985065,11279823889,0.08857546,0.4392121,0.38789943,11279823889,49.5
11279832749,-1.8735801,10.169497,0.33499518,11279832749,0.08552113,0.42332962,0.41416663,11279832749,49.476562
11279841589,-1.841277,10.162318,0.22253251,11279841589,0.0842994,0.4092797,0.44409904,11279841589,49.476562
11279850451,-1.7168503,10.21496,0.1160519,11279850451,0.07696902,0.40133846,0.46670106,11279850451,49.484375
11279859289,-1.6654046,10.137193,0.11365908,11279859289,0.073303826,0.39584067,0.4886922,11279859289,49.484375
11279868148,-1.5601203,10.1599245,0.19381863,11279868148,0.06841691,0.39522982,0.50579643,11279868148,49.5
11279876991,-1.4835501,10.126426,0.25842485,11279876991,0.06658431,0.3933972,0.5174029,11279876991,49.5
11279885828,-1.3399807,10.119247,0.32303107,11279885828,0.07269296,0.3915646,0.5235115,11279885828,49.46875
11279894678,-1.3076776,10.165907,0.33499518,11279894678,0.07880162,0.38973203,0.52412236,11279894678,49.46875
11279903536,-1.2586247,10.212567,0.24885355,11279903536,0.08735373,0.38362336,0.52290064,11279903536,49.492188
11279912375,-1.1844472,10.195817,0.21415763,11279912375,0.09162979,0.37690386,0.5143485,11279912375,49.492188
11279921217,-1.2418749,10.24487,0.17108682,11279921217,0.092240654,0.36774087,0.51251596,11279921217,49.527344
11279930080,-1.1533405,10.358529,0.17826529,11279930080,0.087964594,0.36346483,0.50518554,11279930080,49.527344
11279938930,-1.1210374,10.299905,0.27158538,11279938930,0.081855945,0.3652974,0.4990769,11279938930,49.507812
11279947774,-1.079163,10.326226,0.33020952,11279947774,0.07819075,0.36957347,0.48991394,11279947774,49.507812
11279956613,-1.0588241,10.269995,0.31106696,11279956613,0.076358154,0.376293,0.48075095,11279956613,49.507812
11279965468,-0.9523434,10.315458,0.31345975,11279965468,0.07513642,0.3830125,0.46731192,11279965468,49.507812
11279974324,-0.90329057,10.316655,0.25603202,11279974324,0.07819075,0.3866777,0.44898596,11279974324,49.503906
11279983161,-0.8530413,10.44826,0.1902294,11279983161,0.08246681,0.3885103,0.4288274,11279983161,49.503906
11279992026,-0.84347,10.443475,0.21415763,11279992026,0.076358154,0.39400807,0.40500367,11279992026,49.46875
11280000863,-0.8063812,10.402797,0.27517462,11280000863,0.069027774,0.39706242,0.3811799,11280000863,49.46875
11280009710,-0.7848458,10.305887,0.3385844,11280009710,0.062308256,0.39645153,0.35369098,11280009710,49.492188
11280018570,-0.7573284,10.406385,0.40438703,11280018570,0.055588737,0.39400807,0.3268129,11280018570,49.492188
11280027414,-0.79800636,10.4016,0.3924229,11280027414,0.04886922,0.39706242,0.3005457,11280027414,49.5
11280036246,-0.7908279,10.417153,0.38165522,11280036246,0.047036625,0.4007276,0.2724459,11280036246,49.5
11280045115,-0.76570326,10.524831,0.2620141,11280045115,0.03604105,0.408058,0.24740042,11280045115,49.484375
11280053955,-0.9415757,10.281959,0.16390835,11280053955,0.02443461,0.41722095,0.22479841,11280053955,49.484375
11280062807,-0.9451649,10.082158,0.36131623,11280062807,0.01038471,0.43127087,0.20219639,11280062807,49.51172
11280071657,-0.782453,10.264012,0.3481557,11280071657,-0.007330383,0.43493605,0.18142697,11280071657,49.51172
11280080499,-0.8207382,10.339387,0.47377887,11280080499,-0.012217305,0.43371433,0.15332718,11280080499,49.515625
11280089352,-0.79920274,10.280763,0.61016977,11280089352,-0.014660766,0.43004912,0.12705997,11280089352,49.515625
11280098190,-0.849452,10.392029,0.6652047,11280098190,-0.020158553,0.43004912,0.0983493,11280098190,49.48828
11280107034,-0.8865408,10.530812,0.57427746,11280107034,-0.023823744,0.42943826,0.07513642,11280107034,49.48828
11280115893,-1.0612168,10.222138,0.6221339,11280115893,-0.026267206,0.43554693,0.05375614,11280115893,49.51172
11280124751,-0.98584294,10.4016,0.7573284,11280124751,-0.028099801,0.44898596,0.036651913,11280124751,49.51172
11280133586,-1.1090733,10.398011,0.587438,11280133586,-0.04153884,0.4465425,0.022602014,11280133586,49.523438
11280142437,-1.1593226,10.449456,0.7848458,11280142437,-0.02687807,0.44104472,0.0067195175,11280142437,49.523438
11280151292,-1.2801601,10.561919,0.7573284,11280151292,-0.04337143,0.4269948,0.004276057,11280151292,49.507812
11280160135,-1.3004991,10.662417,0.762114,11280160135,-0.03970624,0.41233405,-0.0030543262,11280160135,49.507812
11280168985,-1.4177474,10.622936,0.8805587,11280168985,-0.032375857,0.39706242,0.0012217305,11280168985,49.48828
11280177828,-1.416551,10.6205435,0.6975078,11280177828,-0.03848451,0.38728857,-0.0012217305,11280177828,49.48828
11280186680,-1.5146568,10.670793,0.7537391,11280186680,-0.029932396,0.37995818,0.005497787,11280186680,49.54297
11280195535,-1.4835501,10.753345,0.72023964,11280195535,-0.029932396,0.37201694,0.008552114,11280195535,49.54297
11280204378,-1.6462619,10.74497,0.64008003,11280204378,-0.016493361,0.36713,0.017104227,11280204378,49.523438
11280213233,-1.6319051,10.882557,0.6556334,11280213233,0,0.3652974,0.023823744,11280213233,49.523438
11280222078,-1.7060826,10.967503,0.5395815,11280222078,0.015271631,0.35796702,0.03604105,11280222078,49.507812
11280230920,-1.7180467,11.02852,0.45224348,11280230920,0.03726278,0.34880406,0.05009095,11280230920,49.507812
11280239769,-1.8281165,11.036895,0.48095736,11280239769,0.05009095,0.3371976,0.06658431,11280239769,49.48047
11280248620,-1.9262222,11.039288,0.5814559,11280248620,0.0580322,0.3268129,0.08674286,11280248620,49.48047
11280257464,-1.9010975,11.042876,0.79441714,11280257464,0.061086524,0.31398472,0.111177474,11280257464,49.476562
11280266332,-1.8831514,10.83829,0.93320084,11280266332,0.05681047,0.3023783,0.14110987,11280266332,49.476562
11280275159,-1.861616,10.737792,0.95473623,11280275159,0.05497787,0.2968805,0.16737708,11280275159,49.46875
11280284009,-1.8089739,10.780863,0.8422736,11280284009,0.052534413,0.29871312,0.19058995,11280284009,49.46875
11280292858,-1.7120646,10.823934,0.701097,11280292858,0.05131268,0.29871312,0.21013765,11280292858,49.484375
11280301724,-1.6689938,10.865808,0.6221339,11280301724,0.04337143,0.29871312,0.2284636,11280301724,49.484375
11280310569,-1.6594225,10.934003,0.573081,11280310569,0.032986723,0.29871312,0.24556783,11280310569,49.507812
11280319408,-1.753939,10.99861,0.5910272,11280319408,0.016493361,0.2932153,0.26389378,11280319408,49.507812
11280328275,-1.7982062,10.997413,0.701097,11280328275,0.0018325958,0.28588495,0.28344148,11280328275,49.5
11280337119,-1.774278,10.959127,0.8219346,11280337119,-0.014660766,0.27977628,0.30482176,11280337119,49.5
11280345954,-1.6618153,10.878968,0.91405827,11280345954,-0.032986723,0.27977628,0.32375857,11280345954,49.476562
11280354795,-1.6642082,10.906486,0.9846465,11280354795,-0.051923547,0.2846632,0.34025195,11280354795,49.476562
11280363649,-1.7108682,10.852647,0.9595219,11280363649,-0.06047566,0.2883284,0.3549127,11280363649,49.46875
11280372508,-1.7001005,10.809576,0.90089774,11280372508,-0.06658431,0.28771752,0.36957347,11280372508,49.46875
11280381353,-1.6534405,10.878968,0.74416786,11280381353,-0.077579886,0.28099802,0.3830125,11280381353,49.476562
11280390215,-1.5720844,10.954342,0.66759753,11280390215,-0.09285152,0.27550024,0.39584067,11280390215,49.476562
11280399047,-1.5553347,10.746166,0.782453,11280399047,-0.106901415,0.27183503,0.40378192,11280399047,49.51172
11280407891,-1.4847465,10.6014,0.95832545,11280407891,-0.12644911,0.2687807,0.40683624,11280407891,49.51172
11280416754,-1.4237294,10.515259,1.146162,11280416754,-0.13927728,0.26267207,0.4111123,11280416754,49.472656
11280425588,-1.3471591,10.333405,1.3304094,11280425588,-0.14477506,0.25411993,0.41050145,11280425588,49.472656
11280434444,-1.2837493,10.210175,1.4189439,11280434444,-0.15210545,0.24373524,0.40561453,11280434444,49.476562
11280443294,-1.1976078,10.140782,1.3722838,11280443294,-0.1459968,0.2284636,0.39584067,11280443294,49.476562
11280452134,-1.180858,10.096515,1.1916257,11280452134,-0.12767084,0.21135938,0.38362336,11280452134,49.484375
11280460983,-1.180858,10.047462,1.0217353,11280460983,-0.11362094,0.19303341,0.37018433,11280460983,49.484375
11280469837,-1.1772687,10.077373,0.8530413,11280469837,-0.10262536,0.17837265,0.35613444,11280469837,49.476562
11280478688,-1.146162,10.068997,0.9068798,11280478688,-0.09285152,0.16982053,0.34147367,11280478688,49.476562
11280487532,-1.0779666,10.035499,1.1030912,11280487532,-0.08246681,0.16065755,0.32620203,11280487532,49.476562
11280496387,-0.9738788,10.113265,1.2311072,11280496387,-0.06963864,0.15454891,0.31031954,11280496387,49.476562
11280505224,-1.0097711,10.110872,1.4081762,11280505224,-0.05681047,0.15210545,0.2968805,11280505224,49.492188
11280514082,-1.0145568,10.04148,1.4907285,11280514082,-0.03848451,0.14477506,0.2828306,11280514082,49.492188
11280522925,-0.9870393,9.939785,1.3447664,11280522925,-0.015882496,0.13439035,0.2669481,11280522925,49.492188
11280531776,-0.97507524,9.967302,1.1473584,11280531776,0.014049901,0.12705997,0.24801129,11280531776,49.492188
11280540623,-0.97507524,9.917053,0.95473623,11280540623,0.035430185,0.12034045,0.22785273,11280540623,49.476562
11280549474,-1.006182,9.9756775,0.83030945,11280549474,0.056199603,0.11789699,0.21074851,11280549474,49.476562
11280558328,-1.012164,10.067801,0.8147561,11280558328,0.07696902,0.11484267,0.19303341,11280558328,49.5
11280567172,-0.9762716,10.027123,0.8602197,11280567172,0.092240654,0.11484267,0.17715092,11280567172,49.5
11280576033,-0.9056834,10.174282,0.9499506,11280576033,0.10445796,0.118507855,0.15760323,11280576033,49.51172
11280584870,-0.89491564,10.222138,1.0540384,11280584870,0.115453534,0.124005646,0.13988814,11280584870,49.51172
11280593723,-0.9702896,10.192228,1.2801601,11280593723,0.13316862,0.12644911,0.118507855,11280593723,49.48828
11280602573,-1.0624132,10.177871,1.2849457,11280602573,0.14721853,0.118507855,0.09896017,11280602573,49.48828
11280611427,-1.0576276,10.173085,1.2239288,11280611427,0.1685988,0.106901415,0.081855945,11280611427,49.5
11280620268,-1.0301101,10.217353,1.1617154,11280620268,0.1826487,0.096516706,0.065973446,11280620268,49.5
11280629123,-1.0636097,10.21496,1.0205388,11280629123,0.19486602,0.09285152,0.052534413,11280629123,49.46875
11280638046,-1.0959128,10.216156,0.9726824,11280638046,0.204029,0.09040806,0.03726278,11280638046,49.46875
11280646798,-1.1186446,10.387243,0.9212367,11280646798,0.2144137,0.093462385,0.02565634,11280646798,49.484375
11280655651,-1.1940185,10.540383,0.8554341,11280655651,0.22357668,0.105068825,0.016493361,11280655651,49.484375
11280664503,-1.3423735,10.631311,0.84107715,11280664503,0.23335053,0.12034045,0.014049901,11280664503,49.484375
11280673349,-1.4548361,10.748559,0.79920274,11280673349,0.24007004,0.1337795,0.018325957,11280673349,49.484375
11280682213,-1.5062819,10.719846,0.6664011,11280682213,0.25289822,0.14721853,0.02443461,11280682213,49.484375
11280691052,-1.4691931,10.766505,0.5766702,11280691052,0.26633725,0.15577064,0.030543262,11280691052,49.484375
11280699900,-1.5684953,10.671989,0.42592242,11280699900,0.27305678,0.16310102,0.03970624,11280699900,49.507812
11280708763,-1.5804594,10.593026,0.26799613,11280708763,0.28527406,0.17348573,0.04886922,11280708763,49.507812
11280717607,-1.6773686,10.555937,0.13878371,11280717607,0.29565877,0.18325958,0.059253927,11280717607,49.484375
11280726456,-1.6677973,10.499705,-0.0071784677,11280726456,0.30176744,0.1966986,0.06780604,11280726456,49.484375
11280735301,-1.579263,10.631311,0.0047856453,11280735301,0.30298916,0.21624629,0.07391469,11280735301,49.460938
11280744137,-1.5948163,10.667203,0.07298109,11280744137,0.29932398,0.23701571,0.08246681,11280744137,49.460938
11280753002,-1.6163517,10.719846,0.2213361,11280753002,0.30115658,0.25961772,0.08979719,11280753002,49.460938
11280761850,-1.6737795,10.657632,0.33499518,11280761850,0.29932398,0.28588495,0.10323623,11280761850,49.460938
11280770685,-1.7060826,10.6349,0.36729828,11280770685,0.3023783,0.30970868,0.118507855,11280770685,49.476562
11280779539,-1.719243,10.587044,0.2955136,11280779539,0.29749137,0.33108896,0.13744467,11280779539,49.476562
11280788392,-1.7491534,10.487741,0.11365908,11280788392,0.2968805,0.35185838,0.1563815,11280788392,49.507812
11280797236,-1.7144574,10.455439,-0.061016977,11280797236,0.29138273,0.37018433,0.17470746,11280797236,49.507812
11280806079,-1.7862421,10.588241,-0.20817557,11280806079,0.28221974,0.3903429,0.19608775,11280806079,49.51172
11280814935,-1.7946169,10.637293,-0.3397808,11280814935,0.2669481,0.4147775,0.21991149,11280814935,49.51172
11280823785,-1.672583,10.676775,-0.35174492,11280823785,0.25289822,0.44226643,0.23823744,11280823785,49.48828
11280832639,-1.6354942,10.8047905,-0.34097722,11280832639,0.23518312,0.47342056,0.25411993,11280832639,49.48828
11280841492,-1.6319051,10.800005,-0.32183465,11280841492,0.22113322,0.50335294,0.2657264,11280841492,49.507812
11280850337,-1.6331015,10.779666,-0.27996024,11280850337,0.20830505,0.5326745,0.27977628,11280850337,49.507812
11280859181,-1.6187445,10.718649,-0.2536392,11280859181,0.19058995,0.56382865,0.2932153,11280859181,49.5
11280868036,-1.6450655,10.693524,-0.27756742,11280868036,0.17531833,0.59559363,0.30909783,11280868036,49.5
11280876879,-1.6031911,10.754541,-0.37208393,11280876879,0.15577064,0.62796944,0.32498032,11280876879,49.507812
11280885717,-1.5732809,10.76172,-0.41635114,11280885717,0.13072516,0.6621779,0.34147367,11280885717,49.507812
11280894572,-1.5206388,10.776076,-0.46899325,11280894572,0.093462385,0.6939429,0.3585779,11280894572,49.484375
11280903415,-1.4548361,10.762917,-0.4881358,11280903415,0.058643065,0.72265357,0.37140608,11280903415,49.484375
11280912275,-1.4045869,10.703095,-0.45104706,11280912275,0.03359759,0.7489208,0.37934732,11280912275,49.507812
11280921114,-1.3411771,10.747363,-0.31106696,11280921114,0,0.7733554,0.38056904,11280921114,49.507812
11280929981,-1.3328022,10.764112,-0.1160519,11280929981,-0.037873644,0.788627,0.3830125,11280929981,49.51953
11280938815,-1.3543376,10.648061,0.061016977,11280938815,-0.07086037,0.8002335,0.38606682,11280938815,49.51953
11280947659,-1.3064811,10.700703,0.1591227,11280947659,-0.099571034,0.8045095,0.3866777,11280947659,49.507812
11280956516,-1.274178,10.621739,0.07776674,11280956516,-0.12095132,0.80878556,0.38606682,11280956516,49.507812
11280965366,-1.2490535,10.650454,0.07178468,11280965366,-0.1386664,0.8136725,0.38056904,11280965366,49.48047
11280974202,-1.1940185,10.603793,0.023928227,11280974202,-0.16065755,0.8222246,0.37751472,11280974202,49.48047
11280983059,-1.1246266,10.627722,0.038285162,11280983059,-0.17837265,0.8338311,0.37140608,11280983059,49.476562
11280991903,-0.99661064,10.631311,-0.021535404,11280991903,-0.20708331,0.84421575,0.35796702,11280991903,49.476562
11281000766,-0.9631111,10.600204,0.047856454,11281000766,-0.22968534,0.8527679,0.3408628,11281000766,49.5
11281009600,-0.9451649,10.692328,0.1363909,11281009600,-0.25045475,0.8527679,0.31764993,11281009600,49.5
11281018462,-1.0217353,10.639686,0.30149564,11281018462,-0.25961772,0.8503244,0.2950479,11281018462,49.51172
11281027306,-1.0360922,10.674382,0.5276174,11281027306,-0.26939157,0.8405506,0.27488935,11281027306,49.51172
11281036163,-1.0959128,10.561919,0.61854464,11281036163,-0.27305678,0.8258898,0.25473082,11281036163,49.496094
11281045011,-1.1330016,10.572687,0.71665037,11281045011,-0.26267207,0.8008443,0.23518312,11281045011,49.496094
11281053859,-1.2909278,10.369297,0.73579293,11281053859,-0.2565634,0.77091193,0.21868975,11281053859,49.51953
11281062710,-1.2083755,10.213763,0.7609176,11281062710,-0.24373524,0.7483099,0.20219639,11281062710,49.51953
11281071551,-1.1066805,10.497313,0.9882358,11281071551,-0.23518312,0.72509706,0.1863139,11281071551,49.496094
11281080400,-1.1270195,10.473385,1.0157533,11281080400,-0.23151793,0.6939429,0.16737708,11281080400,49.496094
11281089255,-1.0516455,10.4566345,1.2107682,11281089255,-0.20586158,0.65179324,0.14538592,11281089255,49.51953
11281098181,-1.166501,10.467402,1.3375878,11281098181,-0.18997909,0.6010914,0.12156218,11281098181,49.51953
11281106933,-1.2358929,10.348958,1.3722838,11281106933,-0.16432275,0.5546656,0.103847094,11281106933,49.496094
11281115792,-1.2167503,10.472188,1.5218352,11281115792,-0.1301143,0.5119051,0.081855945,11281115792,49.496094
11281118743,-1.3004991,10.358529,1.5409778,11281118743,-0.11056661,0.4642576,0.06841691,11281118743,49.507812
11281133487,-1.3316058,10.228121,1.5900307,11281133487,-0.07880162,0.41722095,0.05131268,11281133487,49.507812
11281142329,-1.4524434,10.201799,1.6283158,11281142329,-0.050701816,0.3726278,0.0421497,11281142329,49.492188
11281151189,-1.3627125,10.254441,1.5565311,11281151189,-0.02687807,0.32620203,0.03176499,11281151189,49.492188
11281160026,-1.4356936,10.2927265,1.6199409,11281160026,0.0018325958,0.27366763,0.02321288,11281160026,49.492188
11281168885,-1.4967105,10.340583,1.5026926,11281168885,0.02443461,0.21991149,0.014660766,11281168885,49.492188
11281177728,-1.5637096,10.325029,1.5122639,11281177728,0.059864793,0.16798794,0.01038471,11281177728,49.51953
11281186575,-1.5529419,10.316655,1.5218352,11281186575,0.08368854,0.1160644,0.007941248,11281186575,49.51953
11281195438,-1.5577276,10.417153,1.4835501,11281195438,0.105068825,0.06658431,0.004276057,11281195438,49.496094
11281204273,-1.5637096,10.382458,1.605584,11281204273,0.12644911,0.018936822,0.0061086523,11281204273,49.496094
11281213123,-1.672583,10.392029,1.68694,11281213123,0.1459968,-0.028710667,0.007941248,11281213123,49.5
11281221980,-1.6977077,10.4159565,1.6713866,11281221980,0.16493362,-0.07452556,0.012217305,11281221980,49.5
11281230833,-1.7084754,10.406385,1.5541383,11281230833,0.18325958,-0.111177474,0.020158553,11281230833,49.51172
11281239673,-1.6558332,10.453046,1.3698909,11281239673,0.19975294,-0.1459968,0.02565634,11281239673,49.51172
11281248528,-1.8388842,10.565509,1.3040884,11281248528,0.22113322,-0.18325958,0.03726278,11281248528,49.472656
11281257372,-1.8376877,10.637293,1.1282159,11281257372,0.23457226,-0.22540927,0.049480084,11281257372,49.472656
11281266226,-1.8329022,10.735399,1.1126626,11281266226,0.258396,-0.26328292,0.06414085,11281266226,49.5
11281275063,-1.8281165,10.693524,1.0779666,11281275063,0.2761111,-0.29993483,0.08368854,11281275063,49.5
11281283917,-1.8317057,10.594222,1.0277174,11281283917,0.29565877,-0.33292156,0.096516706,11281283917,49.484375
11281292758,-1.8400806,10.615758,0.997807,11281292758,0.3182608,-0.36346483,0.1160644,11281292758,49.484375
11281301616,-1.7144574,10.633704,0.9128618,11281301616,0.34330627,-0.38728857,0.12889257,11281301616,49.535156
11281310470,-1.6618153,10.595419,0.8063812,11281310470,0.36346483,-0.39950588,0.14110987,11281310470,49.535156
11281319321,-1.5146568,10.776076,0.6233303,11281319321,0.37690386,-0.40439278,0.1459968,11281319321,49.496094
11281328150,-1.5541383,10.730613,0.47018966,11281328150,0.39095375,-0.40194935,0.15454891,11281328150,49.496094
11281336993,-1.5637096,10.777273,0.34576288,11281336993,0.39828414,-0.39522982,0.16187929,11281336993,49.492188
11281345852,-1.6354942,10.750952,0.22492532,11281345852,0.39645153,-0.38728857,0.17165314,11281345852,49.492188
11281354692,-1.5613167,10.644471,0.18664017,11281354692,0.39767328,-0.3811799,0.18081611,11281354692,49.5
11281363559,-1.5744773,10.667203,0.1794617,11281363559,0.4025602,-0.36896262,0.1881465,11281363559,49.5
11281372394,-1.6127625,10.6815605,0.12083755,11281372394,0.40378192,-0.35430184,0.19364429,11281372394,49.5
11281381259,-1.5804594,10.677971,0.12083755,11281381259,0.41050145,-0.3390302,0.19853121,11281381259,49.5
11281390090,-1.5182459,10.700703,0.051445685,11281390090,0.41233405,-0.32070425,0.20586158,11281390090,49.46875
11281398946,-1.5146568,10.767702,-0.07178468,11281398946,0.4196644,-0.30115658,0.21013765,11281398946,49.46875
11281407789,-1.4644074,10.76172,-0.15314065,11281407789,0.42088616,-0.2724459,0.21380283,11281407789,49.484375
11281416642,-1.3710874,10.729417,-0.19621146,11281416642,0.41233405,-0.23518312,0.21624629,11281416642,49.484375
11281425492,-1.2693924,10.820344,-0.25124636,11281425492,0.39095375,-0.19181168,0.21868975,11281425492,49.527344
11281434333,-1.2394822,10.802398,-0.2440679,11281434333,0.36651915,-0.14294247,0.22052236,11281434333,49.527344
11281443179,-1.2095718,10.876575,-0.31345975,11281443179,0.3286455,-0.09590584,0.21930063,11281443179,49.515625
11281452029,-1.2119647,10.912468,-0.4319045,11281452029,0.29138273,-0.04642576,0.21991149,11281452029,49.515625
11281460885,-1.180858,10.923235,-0.54436713,11281460885,0.25045475,0.0067195175,0.22052236,11281460885,49.472656
11281469745,-1.2502499,10.810773,-0.64606214,11281469745,0.21074851,0.059864793,0.22418754,11281469745,49.472656
11281477990,-1.2000005,10.738988,-0.60658056,11281477990,0.17165314,0.1142318,0.22418754,11281477990,49.492188
11281481537,-1.2203395,10.709078,-0.6017949,11281481537,0.12522738,0.16737708,0.226631,11281481537,49.492188
11281496274,-1.0839486,10.693524,-0.53240305,11281496274,0.080634214,0.2180789,0.22602014,11281496274,49.484375
11281505119,-1.0719845,10.590633,-0.3361916,11281505119,0.030543262,0.2669481,0.22357668,11281505119,49.484375
11281513975,-0.9415757,10.492527,-0.18903299,11281513975,-0.019547688,0.31703907,0.21319197,11281513975,49.476562
11281522827,-0.9834501,10.473385,-0.051445685,11281522827,-0.055588737,0.3659083,0.20647246,11281522827,49.476562
11281531666,-1.006182,10.482956,0.019142581,11281531666,-0.087964594,0.40866885,0.19364429,11281531666,49.507812
11281540514,-1.1162517,10.500902,-0.07537391,11281540514,-0.116675265,0.44532076,0.18325958,11281540514,49.507812
11281549380,-1.0707881,10.650454,-0.11365908,11281549380,-0.14905111,0.4801401,0.17531833,11281549380,49.507812
11281558223,-1.1234303,10.6815605,-0.16869399,11281558223,-0.18387043,0.516792,0.16982053,11281558223,49.507812
11281567067,-1.1892328,10.632507,-0.10289137,11281567067,-0.2180789,0.552833,0.16371189,11281567067,49.527344
11281575927,-1.166501,10.552348,0.031106694,11281575927,-0.24801129,0.5852089,0.15882497,11281575927,49.527344
11281584767,-1.1437693,10.429117,0.09332009,11281584767,-0.27366763,0.61453044,0.15577064,11281584767,49.48828
11281593608,-1.099502,10.387243,0.21894327,11281593608,-0.29077184,0.6414085,0.14844026,11281593608,49.48828
11281602462,-1.1353943,10.353744,0.25603202,11281602462,-0.30970868,0.6658431,0.13988814,11281602462,49.492188
11281611307,-1.1377872,10.291531,0.30269206,11281611307,-0.31948254,0.68661255,0.12705997,11281611307,49.492188
11281620166,-1.174876,10.280763,0.36490545,11281620166,-0.3231477,0.7031059,0.11728613,11281620166,49.507812
11281629009,-1.2179468,10.329815,0.32303107,11281629009,-0.3231477,0.7171558,0.10629055,11281629009,49.507812
11281637853,-1.2370893,10.403993,0.3481557,11281637853,-0.3182608,0.72082096,0.09285152,11281637853,49.476562
11281646705,-1.2813566,10.3681,0.5180461,11281646705,-0.31337386,0.71776664,0.08124508,11281646705,49.476562
11281655546,-1.3818551,10.326226,0.8003992,11281655546,-0.3036,0.7031059,0.069027774,11281655546,49.51172
11281664409,-1.3304094,10.253245,1.0372887,11281664409,-0.28771752,0.68783426,0.06169739,11281664409,49.51172
11281673244,-1.3710874,10.18505,1.1880364,11281673244,-0.25961772,0.66706485,0.056199603,11281673244,49.507812
11281682106,-1.410569,10.156336,1.3100704,11281682106,-0.22540927,0.6450737,0.049480084,11281682106,49.507812
11281690944,-1.4991034,10.106087,1.3651053,11281690944,-0.18692477,0.61758476,0.04337143,11281690944,49.464844
11281699798,-1.5409778,10.314262,1.3746766,11281699798,-0.14844026,0.5864306,0.039095376,11281699798,49.464844
11281708047,-1.5696917,10.4016,1.2969099,11281708047,-0.111177474,0.5522222,0.039095376,11281708047,49.492188
11281711594,-1.5625132,10.423136,1.2777673,11281711594,-0.07269296,0.5216789,0.04153884,11281711594,49.492188
11281726345,-1.5684953,10.46501,1.3399807,11281726345,-0.04153884,0.48930305,0.043982297,11281726345,49.484375
11281735187,-1.5744773,10.439885,1.422533,11281735187,-0.008552114,0.45204028,0.04642576,11281735187,49.484375
11281744037,-1.591227,10.340583,1.4620147,11281744037,0.028710667,0.4147775,0.053145275,11281744037,49.51172
11281752895,-1.585245,10.249656,1.5038891,11281752895,0.064751714,0.37690386,0.058643065,11281752895,49.51172
11281761730,-1.6163517,10.253245,1.5194423,11281761730,0.0983493,0.34330627,0.06658431,11281761730,49.496094
11281770593,-1.6534405,10.124033,1.4727824,11281770593,0.13805555,0.30604348,0.07452556,11281770593,49.496094
11281779446,-1.6450655,10.144372,1.5098711,11281779446,0.172264,0.26328292,0.08124508,11281779446,49.5
11281788281,-1.6474584,10.1683,1.451247,11281788281,0.20708331,0.22052236,0.08857546,11281788281,49.5
11281797125,-1.6522441,10.236495,1.477568,11281797125,0.23945917,0.18203785,0.09712757,11281797125,49.492188
11281805971,-1.7228323,10.259227,1.5541383,11281805971,0.26389378,0.14172074,0.111177474,11281805971,49.492188
11281814821,-1.7395821,10.30828,1.5696917,11281814821,0.28955013,0.10323623,0.12034045,11281814821,49.476562
11281823687,-1.7826529,10.289138,1.4536397,11281823687,0.3145956,0.06414085,0.13439035,11281823687,49.476562
11281832531,-1.774278,10.316655,1.3004991,11281832531,0.34025195,0.027488936,0.14782938,11281832531,49.51172
11281841385,-1.6677973,10.363315,1.1437693,11281841385,0.35918877,-0.0018325958,0.16187929,11281841385,49.51172
11281850226,-1.6139588,10.414761,1.0923235,11281850226,0.36713,-0.023823744,0.17592919,11281850226,49.503906
11281859084,-1.625923,10.4051895,1.1581261,11281859084,0.3652974,-0.043982297,0.18753563,11281859084,49.503906
11281868037,-1.68694,10.389636,1.1485549,11281868037,0.35735616,-0.059864793,0.19853121,11281868037,49.507812
11281876766,-1.6749759,10.4159565,1.1270195,11281876766,0.3549127,-0.07574729,0.20586158,11281876766,49.507812
11281885617,-1.6283158,10.381261,1.0241281,11281885617,0.3549127,-0.09101892,0.2180789,11281885617,49.492188
11281894464,-1.5314065,10.310673,0.8602197,11281894464,0.3549127,-0.105068825,0.22785273,11281894464,49.492188
11281903308,-1.4787644,10.424332,0.66161543,11281903308,0.35369098,-0.1160644,0.23579398,11281903308,49.54297
11281912171,-1.4703895,10.30469,0.44626144,11281912171,0.35002577,-0.12217305,0.24190263,11281912171,49.54297
11281921023,-1.4249259,10.286744,0.43669012,11281921023,0.3463606,-0.12339478,0.2443461,11281921023,49.48828
11281929863,-1.3603196,10.316655,0.38285163,11281929863,0.3371976,-0.12339478,0.24556783,11281929863,49.48828
11281938707,-1.3459628,10.213763,0.38763726,11281938707,0.3359759,-0.116675265,0.2443461,11281938707,49.476562
11281947551,-1.2837493,10.226924,0.3385844,11281947551,0.33658674,-0.10751228,0.24129178,11281947551,49.476562
11281956403,-1.2514462,10.296316,0.20219351,11281956403,0.33475417,-0.095294975,0.23823744,11281956403,49.5
11281965250,-1.2227324,10.265209,0.17587246,11281965250,0.33169982,-0.08552113,0.23151793,11281965250,49.5
11281974110,-1.0911272,10.275977,0.15314065,11281974110,0.32742378,-0.07696902,0.21930063,11281974110,49.507812
11281982958,-1.0480564,10.322637,0.15314065,11281982958,0.3200934,-0.070249505,0.20830505,11281982958,49.507812
11281991796,-1.0504491,10.360922,0.11365908,11281991796,0.31642818,-0.06169739,0.19303341,11281991796,49.527344
11282000662,-1.1138589,10.441082,0.11006984,11282000662,0.3109304,-0.05131268,0.17837265,11282000662,49.527344
11282009507,-1.1425728,10.581061,0.0849452,11282009507,0.29993483,-0.04153884,0.16554448,11282009507,49.523438
11282018360,-1.1653047,10.577473,0.05383851,11282018360,0.29077184,-0.02565634,0.15577064,11282018360,49.523438
11282027204,-1.0863415,10.642078,0.049052864,11282027204,0.2761111,-0.004276057,0.14844026,11282027204,49.48828
11282036048,-1.1521441,10.663614,0.025124637,11282036048,0.25717425,0.021380283,0.14355333,11282036048,49.48828
11282044892,-1.1174482,10.63849,-0.029910283,11282044892,0.23579398,0.049480084,0.14049901,11282044892,49.507812
11282053741,-0.9882358,10.705488,-0.09092726,11282053741,0.20280726,0.08002335,0.13622294,11282053741,49.507812
11282062598,-0.9164511,10.771291,-0.17467605,11282062598,0.16615535,0.119729586,0.12767084,11282062598,49.5
11282071439,-1.0049855,10.614561,-0.19142582,11282071439,0.13316862,0.15760323,0.11728613,11282071439,49.5
11282080299,-0.9906286,10.730613,-0.040677983,11282080299,0.09590584,0.19364429,0.108123146,11282080299,49.5
11282089146,-1.1449656,10.6014,0.07537391,11282089146,0.06658431,0.22113322,0.099571034,11282089146,49.5
11282098027,-1.0408778,10.579865,0.21296121,11282098027,0.053145275,0.23762658,0.08979719,11282098027,49.51172
11282106825,-0.76689965,10.991431,0.15314065,11282106825,0.029932396,0.26267207,0.076358154,11282106825,49.51172
11282115671,-0.97866446,10.686346,0.18783657,11282115671,0.02565634,0.2919936,0.061086524,11282115671,49.507812
11282124527,-0.991825,10.707881,0.2739782,11282124527,0.019547688,0.31948254,0.045814894,11282124527,49.507812
11282133372,-1.1629118,10.750952,0.09212367,11282133372,0.0012217305,0.34147367,0.03604105,11282133372,49.507812
11282142221,-1.1485549,10.57149,0.111266255,11282142221,0,0.36163223,0.029932396,11282142221,49.507812
11282151070,-1.1282159,10.551151,0.18305093,11282151070,-0.019547688,0.37934732,0.022602014,11282151070,49.507812
11282159918,-1.160519,10.674382,0.18305093,11282159918,-0.03481932,0.39828414,0.019547688,11282159918,49.507812
11282168777,-1.1174482,10.741381,0.276371,11282168777,-0.039095376,0.41538838,0.01038471,11282168777,49.496094
11282177621,-1.2071791,10.862219,0.3062813,11282177621,-0.05131268,0.43066,0.0067195175,11282177621,49.496094
11282186461,-1.2011969,11.040483,0.34456646,11282186461,-0.06047566,0.44348818,0.0036651916,11282186461,49.507812
11282195320,-1.2765709,11.020144,0.40438703,11282195320,-0.069027774,0.4538729,0.004276057,11282195320,49.507812
11282204167,-1.3004991,11.047662,0.4534399,11282204167,-0.077579886,0.4642576,0.007941248,11282204167,49.492188
11282213023,-1.329213,10.993824,0.4546363,11282213023,-0.087964594,0.47586402,0.015271631,11282213023,49.492188
11282221864,-1.3926228,10.960324,0.51445687,11282221864,-0.09712757,0.49296826,0.022602014,11282221864,49.492188
11282230726,-1.3615161,10.89811,0.5838487,11282230726,-0.10140363,0.50335294,0.029321533,11282230726,49.492188
11282239560,-1.4440684,10.79163,0.6999006,11282239560,-0.10323623,0.50885075,0.037873644,11282239560,49.476562
11282248406,-1.463211,10.700703,0.7716853,11282248406,-0.10140363,0.50762904,0.04520403,11282248406,49.476562
11282257250,-1.4057833,10.7126665,0.74177504,11282257250,-0.09285152,0.5027421,0.05009095,11282257250,49.5
11282266104,-1.4536397,10.630115,0.6891329,11282266104,-0.08246681,0.49480084,0.05497787,11282266104,49.5
11282274958,-1.3986049,10.602597,0.7501499,11282274958,-0.0720821,0.48258355,0.05497787,11282274958,49.507812
11282283819,-1.4608182,10.615758,0.79920274,11282283819,-0.06536258,0.46486846,0.059253927,11282283819,49.507812
11282292668,-1.4009976,10.588241,0.89371926,11282292668,-0.050701816,0.4428773,0.06047566,11282292668,49.507812
11282301511,-1.4237294,10.490134,1.0109676,11282301511,-0.026267206,0.42271876,0.062308256,11282301511,49.507812
11282310346,-1.4129617,10.485349,1.0707881,11282310346,-0.0036651916,0.40194935,0.06291912,11282310346,49.51953
11282319194,-1.4524434,10.366904,1.105484,11282319194,0.021991149,0.37568212,0.062308256,11282319194,49.51953
11282328161,-1.5014962,10.293923,1.1676974,11282328161,0.05375614,0.34513888,0.06352998,11282328161,49.48828
11282336890,-1.3854443,10.199407,1.1066805,11282336890,0.081855945,0.31337386,0.06291912,11282336890,49.48828
11282345744,-1.3519448,10.206585,1.0037891,11282345744,0.10873401,0.28344148,0.06291912,11282345744,49.507812
11282354598,-1.3615161,10.222138,0.951147,11282354598,0.13744467,0.25595254,0.059253927,11282354598,49.507812
11282363453,-1.3806586,10.2317095,0.8446664,11282363453,0.16126843,0.2302962,0.0580322,11282363453,49.46875
11282372290,-1.3375878,10.179068,0.7178468,11282372290,0.18020524,0.21197024,0.057421334,11282372290,49.46875
11282381153,-1.2203395,10.179068,0.654437,11282381153,0.19547687,0.1966986,0.055588737,11282381153,49.476562
11282390000,-1.262214,10.191031,0.5886344,11282390000,0.20463985,0.18692477,0.05009095,11282390000,49.476562
11282398850,-1.3459628,10.273584,0.64606214,11282398850,0.21746802,0.17470746,0.045814894,11282398850,49.51953
11282407694,-1.3686945,10.24846,0.7106683,11282407694,0.2302962,0.1563815,0.04153884,11282407694,49.51953
11282416540,-1.4261223,10.24846,0.7788638,11282416540,0.24556783,0.13316862,0.03970624,11282416540,49.496094
11282425393,-1.4596218,10.347761,0.8709874,11282425393,0.26328292,0.105068825,0.04153884,11282425393,49.496094
11282434230,-1.4811572,10.340583,0.849452,11282434230,0.28160888,0.07147124,0.044593163,11282434230,49.492188
11282443078,-1.3974084,10.299905,0.86979103,11282443078,0.30115658,0.039095376,0.04642576,11282443078,49.492188
11282451924,-1.3040884,10.327422,0.8805587,11282451924,0.30665436,0.012217305,0.044593163,11282451924,49.492188
11282460783,-1.3316058,10.222138,0.8171489,11282460783,0.31703907,-0.0067195175,0.042760566,11282460783,49.492188
11282469640,-1.308874,10.250853,0.7645068,11282469640,0.32253686,-0.020158553,0.0421497,11282469640,49.46875
11282478480,-1.2610176,10.226924,0.613759,11282478480,0.31887165,-0.02687807,0.03970624,11282478480,49.46875
11282487324,-1.2323036,10.171889,0.6113662,11282487324,0.312763,-0.028710667,0.03848451,11282487324,49.492188
11282496171,-1.2239288,10.137193,0.52283174,11282496171,0.2968805,-0.029321533,0.032375857,11282496171,49.492188
11282505013,-1.3220345,10.153943,0.47138608,11282505013,0.29016098,-0.03176499,0.028710667,11282505013,49.460938
11282513881,-1.3411771,10.090533,0.37806597,11282513881,0.28099802,-0.03604105,0.02565634,11282513881,49.460938
11282522714,-1.3304094,10.086944,0.2620141,11282522714,0.26939157,-0.0421497,0.025045475,11282522714,49.51172
11282531570,-1.2705889,10.102497,0.18783657,11282531570,0.25289822,-0.04337143,0.027488936,11282531570,49.51172
11282540409,-1.2346965,10.130014,0.1160519,11282540409,0.22907446,-0.037873644,0.026267206,11282540409,49.48047
11282549277,-1.2251252,10.070194,0.039481573,11282549277,0.20586158,-0.028099801,0.02565634,11282549277,49.48047
11282558116,-1.2287145,10.085748,0.104087785,11282558116,0.17531833,-0.015882496,0.02321288,11282558116,49.507812
11282566960,-1.3016955,10.107283,0.17826529,11282566960,0.14294247,-0.0061086523,0.025045475,11282566960,49.507812
11282575819,-1.2634103,10.141979,0.30149564,11282575819,0.11728613,0.0012217305,0.02443461,11282575819,49.46875
11282584650,-1.3004991,10.18146,0.38644084,11282584650,0.086132,0.007941248,0.02443461,11282584650,49.46875
11282593503,-1.308874,10.131211,0.44506502,11282593503,0.064751714,0.01160644,0.025045475,11282593503,49.507812
11282602358,-1.4057833,10.067801,0.58265233,11282602358,0.042760566,0.009162978,0.027488936,11282602358,49.507812
11282611199,-1.4380864,10.194621,0.61734825,11282611199,0.015271631,-0.00061086525,0.031154128,11282611199,49.476562
11282620049,-1.4907285,10.177871,0.7178468,11282620049,-0.01038471,-0.012217305,0.03970624,11282620049,49.476562
11282628901,-1.3351951,10.13839,0.81834537,11282628901,-0.044593163,-0.018936822,0.043982297,11282628901,49.507812
11282637744,-1.3483555,10.040284,0.8817552,11282637744,-0.076358154,-0.018936822,0.044593163,11282637744,49.507812
11282646599,-1.3531412,9.980463,0.8362915,11282646599,-0.10262536,-0.01038471,0.043982297,11282646599,49.5
11282655450,-1.3220345,9.88475,0.7800602,11282655450,-0.1301143,-0.0018325958,0.0421497,11282655450,49.5
11282664303,-1.3686945,9.940982,0.701097,11282664303,-0.15821409,0.0067195175,0.044593163,11282664303,49.484375
11282673149,-1.3926228,9.992428,0.58265233,11282673149,-0.18692477,0.01160644,0.04642576,11282673149,49.484375
11282681991,-1.4943178,9.967302,0.5778667,11282681991,-0.21624629,0.01038471,0.054367006,11282681991,49.476562
11282690848,-1.4799608,9.954143,0.68195444,11282690848,-0.24923302,0.0061086523,0.06169739,11282690848,49.476562
11282699700,-1.4440684,9.8835535,0.89491564,11282699700,-0.2779437,0.0012217305,0.07269296,11282699700,49.5
11282708555,-1.3806586,9.728021,0.99302137,11282708555,-0.29932398,-0.0012217305,0.07880162,11282708555,49.5
11282717399,-1.4416757,9.65145,1.119841,11282717399,-0.3109304,-0.00061086525,0.086132,11282717399,49.51172
11282726244,-1.4811572,9.640682,1.2454642,11282726244,-0.31337386,-0.004886922,0.09468412,11282726244,49.51172
11282735089,-1.442872,9.656236,1.2251252,11282735089,-0.31520647,-0.016493361,0.103847094,11282735089,49.48828
11282743936,-1.402194,9.622736,1.2394822,11282743936,-0.3109304,-0.029932396,0.112399206,11282743936,49.48828
11282752791,-1.3782659,9.609575,1.2849457,11282752791,-0.30543262,-0.042760566,0.116675265,11282752791,49.51172
11282761645,-1.3818551,9.589237,1.3423735,11282761645,-0.29138273,-0.05375614,0.119729586,11282761645,49.51172
11282770489,-1.4177474,9.501899,1.4967105,11282770489,-0.27183503,-0.0720821,0.12461651,11282770489,49.503906
11282779342,-1.3794622,9.41815,1.5768701,11282779342,-0.25045475,-0.096516706,0.1282817,11282779342,49.503906
11282788189,-1.3328022,9.379865,1.6546369,11282788189,-0.22174409,-0.118507855,0.13255776,11282788189,49.51953
11282797033,-1.2705889,9.393025,1.6797615,11282797033,-0.18692477,-0.13500121,0.13439035,11282797033,49.51953
11282805887,-1.2586247,9.395418,1.6450655,11282805887,-0.14660765,-0.1459968,0.13439035,11282805887,49.496094
11282814729,-1.2095718,9.438489,1.6462619,11282814729,-0.105068825,-0.15393804,0.13439035,11282814729,49.496094
11282823572,-1.1282159,9.406186,1.5864414,11282823572,-0.065973446,-0.15882497,0.13255776,11282823572,49.492188
11282832422,-1.1150553,9.513863,1.6677973,11282832422,-0.027488936,-0.16432275,0.12767084,11282832422,49.492188
11282841265,-1.1353943,9.625129,1.6857436,11282841265,0.009162978,-0.17654006,0.12034045,11282841265,49.51953
11282850129,-1.1856437,9.676575,1.7599211,11282850129,0.04886922,-0.18997909,0.112399206,11282850129,49.51953
11282858975,-1.2047862,9.694521,1.8484555,11282858975,0.08307768,-0.20219639,0.10873401,11282858975,49.503906
11282867819,-1.1174482,9.598808,1.841277,11282867819,0.12583824,-0.20891592,0.10140363,11282867819,49.503906
11282876659,-1.1246266,9.5557375,1.7599211,11282876659,0.16615535,-0.21197024,0.09407325,11282876659,49.484375
11282885512,-1.1102697,9.598808,1.6331015,11282885512,0.20280726,-0.21563543,0.086132,11282885512,49.484375
11282894355,-1.1078769,9.672985,1.5182459,11282894355,0.2406809,-0.21563543,0.08002335,11282894355,49.51172
11282903210,-1.1772687,9.695718,1.3495519,11282903210,0.27550024,-0.21135938,0.07452556,11282903210,49.51172
11282912058,-1.2119647,9.793823,1.2562319,11282912058,0.3023783,-0.204029,0.07147124,11282912058,49.48828
11282920908,-1.1844472,9.924232,1.2311072,11282920908,0.32436943,-0.18997909,0.069027774,11282920908,49.48828
11282929748,-1.0731809,9.970892,1.2586247,11282929748,0.34513888,-0.17592919,0.06352998,11282929748,49.51172
11282938599,-0.971486,10.1683,1.3208381,11282938599,0.36346483,-0.16126843,0.054367006,11282938599,49.51172
11282947443,-0.90448695,10.284351,1.2729816,11282947443,0.3811799,-0.1441642,0.0421497,11282947443,49.48828
11282956310,-0.9176475,10.243673,1.3100704,11282956310,0.40683624,-0.122783914,0.02687807,11282956310,49.48828
11282965141,-0.9595219,10.253245,1.1772687,11282965141,0.4269948,-0.105068825,0.013439035,11282965141,49.5
11282974004,-0.9954142,10.163514,0.9128618,11282974004,0.4550946,-0.086132,-0.004276057,11282974004,49.5
11282982861,-0.9774681,10.37169,0.74177504,11282982861,0.47708577,-0.06169739,-0.02321288,11282982861,49.507812
11282991705,-1.0313065,10.454242,0.4953143,11282991705,0.48441613,-0.03176499,-0.03970624,11282991705,49.507812
11283000557,-1.0241281,10.46501,0.32662028,11283000557,0.49480084,0.004886922,-0.055588737,11283000557,49.492188
11283009385,-1.0707881,10.462617,0.20219351,11283009385,0.48563787,0.040927973,-0.06658431,11283009385,49.492188
11283018256,-1.1425728,10.443475,0.10767702,11283018256,0.4746423,0.07574729,-0.07391469,11283018256,49.460938
11283027100,-1.2299109,10.407582,0.039481573,11283027100,0.4636467,0.11484267,-0.07696902,11283027100,49.460938
11283035937,-1.2693924,10.346565,0.023928227,11283035937,0.44593164,0.15027285,-0.07696902,11283035937,49.507812
11283044793,-1.329213,10.381261,-0.021535404,11283044793,0.42821655,0.18692477,-0.07269296,11283044793,49.507812
11283053636,-1.1449656,10.572687,-0.1268196,11283053636,0.40683624,0.226631,-0.07513642,11283053636,49.507812
11283062497,-1.5936198,10.193424,0.07178468,11283062497,0.38789943,0.26389378,-0.06352998,11283062497,49.507812
11283071333,-1.4249259,10.522438,-0.02632105,11283071333,0.36468655,0.29932398,-0.05681047,11283071333,49.460938
11283080180,-1.7635103,10.403993,-0.083748795,11283080180,0.33292156,0.3378085,-0.028710667,11283080180,49.460938
11283089035,-1.4476577,10.6408825,0.07776674,11283089035,0.312763,0.37201694,-0.017104227,11283089035,49.51172
11283098035,-1.68694,10.322637,0.11724831,11283098035,0.2724459,0.40133846,0.009162978,11283098035,49.51172
11283106718,-1.5194423,10.048658,0.12921242,11283106718,0.2510656,0.42455134,0.02321288,11283106718,49.507812
11283115576,-1.2658032,10.365707,0.03708875,11283115576,0.2125811,0.45448375,0.03359759,11283115576,49.507812
11283124426,-1.3674982,10.298709,-0.0849452,11283124426,0.17287487,0.4886922,0.04520403,11283124426,49.503906
11283133281,-1.288535,10.310673,0.08135597,11283133281,0.13622294,0.5174029,0.047647487,11283133281,49.503906
11283142117,-1.402194,10.18146,0.0047856453,11283142117,0.07880162,0.53878313,0.06658431,11283142117,49.507812
11283150965,-1.2801601,10.187443,0.09212367,11283150965,0.036651913,0.56199604,0.069027774,11283150965,49.507812
11283159813,-1.410569,10.023534,0.18305093,11283159813,-0.01282817,0.58093286,0.0842994,11283159813,49.476562
11283168681,-1.3328022,10.019945,0.1363909,11283168681,-0.052534413,0.60231316,0.08857546,11283168681,49.476562
11283177525,-1.4596218,10.013963,0.17347965,11283177525,-0.087964594,0.61941737,0.100792766,11283177525,49.51172
11283186376,-1.3555341,10.084551,0.10049855,11283186376,-0.12461651,0.63346726,0.105068825,11283186376,49.51172
11283195208,-1.3926228,9.960124,0.111266255,11283195208,-0.15027285,0.6444628,0.10873401,11283195208,49.515625
11283204068,-1.3387842,10.000802,0.11246266,11283204068,-0.17959438,0.64996064,0.108123146,11283204068,49.515625
11283212916,-1.3543376,9.98166,0.13758731,11283212916,-0.1966986,0.65179324,0.10567969,11283212916,49.48828
11283221755,-1.3351951,9.9038925,0.22971097,11283221755,-0.20952678,0.6554584,0.105068825,11283221755,49.48828
11283230618,-1.3854443,9.942178,0.24885355,11283230618,-0.22357668,0.6560693,0.099571034,11283230618,49.484375
11283239449,-1.4297116,9.889536,0.36011982,11283239449,-0.2302962,0.65484756,0.1001819,11283239449,49.484375
11283248310,-1.3387842,9.82493,0.4977071,11283248310,-0.23823744,0.64568454,0.0983493,11283248310,49.492188
11283257154,-1.3639089,9.802198,0.6436693,11283257154,-0.24312437,0.6261369,0.09712757,11283257154,49.492188
11283266014,-1.4117653,9.766306,0.72263247,11283266014,-0.23945917,0.6059783,0.09285152,11283266014,49.484375
11283274860,-1.4644074,9.772287,0.77766734,11283274860,-0.22968534,0.5870415,0.09040806,11283274860,49.484375
11283283693,-1.4823537,9.801002,0.762114,11283283693,-0.21624629,0.56199604,0.08735373,11283283693,49.492188
11283292551,-1.4476577,9.848858,0.8805587,11283292551,-0.20525073,0.52656585,0.084910266,11283292551,49.492188
11283301407,-1.3770695,9.894321,0.95712906,11283301407,-0.19486602,0.48441613,0.080634214,11283301407,49.507812
11283310252,-1.4285151,9.851251,1.0707881,11283310252,-0.17959438,0.4392121,0.07513642,11283310252,49.507812
11283319110,-1.4129617,9.846465,1.2000005,11283319110,-0.15271631,0.39645153,0.0720821,11283319110,49.492188
11283328046,-1.422533,9.88475,1.2658032,11283328046,-0.12950343,0.3555236,0.06963864,11283328046,49.492188
11283336798,-1.4261223,9.88834,1.3495519,11283336798,-0.10323623,0.3182608,0.06658431,11283336798,49.5
11283345636,-1.5158532,9.966106,1.4895321,11283345636,-0.080634214,0.28038713,0.06658431,11283345636,49.5
11283354481,-1.5888343,10.085748,1.5804594,11283354481,-0.06352998,0.23884831,0.06841691,11283354481,49.507812
11283363349,-1.5720844,10.186246,1.605584,11283363349,-0.040927973,0.19425514,0.0720821,11283363349,49.507812
11283372191,-1.6390835,10.2520485,1.6414764,11283372191,-0.017715093,0.14721853,0.080634214,11283372191,49.51172
11283381034,-1.5984055,10.280763,1.6199409,11283381034,0.0061086523,0.09773844,0.084910266,11283381034,49.51172
11283389893,-1.6474584,10.21137,1.5900307,11283389893,0.03726278,0.043982297,0.092240654,11283389893,49.496094
11283398742,-1.5876378,10.24487,1.579263,11283398742,0.06169739,-0.01038471,0.09712757,11283398742,49.496094
11283407586,-1.5696917,10.21496,1.6354942,11283407586,0.09162979,-0.06658431,0.10140363,11283407586,49.484375
11283416421,-1.5756737,10.191031,1.7240287,11283416421,0.12950343,-0.12034045,0.105068825,11283416421,49.484375
11283425281,-1.6331015,10.246066,1.7551354,11283425281,0.16737708,-0.17592919,0.10751228,11283425281,49.51172
11283434138,-1.5984055,10.321441,1.7563318,11283434138,0.204029,-0.23151793,0.112399206,11283434138,49.51172
11283442985,-1.5565311,10.279566,1.7024933,11283442985,0.2406809,-0.28160888,0.115453534,11283442985,49.496094
11283451816,-1.5050855,10.377672,1.579263,11283451816,0.2761111,-0.32436943,0.1160644,11283451816,49.496094
11283460675,-1.4656038,10.472188,1.4069797,11283460675,0.30970868,-0.3585779,0.11911872,11283460675,49.5
11283469518,-1.4476577,10.502099,1.302892,11283469518,0.33292156,-0.38423425,0.122783914,11283469518,49.5
11283478385,-1.4333007,10.517652,1.2131611,11283478385,0.34391713,-0.40866885,0.124005646,11283478385,49.492188
11283487229,-1.3998013,10.445868,1.2251252,11283487229,0.35185838,-0.43249258,0.12583824,11283487229,49.492188
11283496062,-1.294517,10.44826,1.1904292,11283496062,0.3549127,-0.44837508,0.12522738,11283496062,49.476562
11283504910,-1.2023934,10.395618,1.038485,11283504910,0.36285394,-0.4569272,0.1160644,11283504910,49.476562
11283513775,-1.262214,10.424332,0.94277215,11283513775,0.37323865,-0.46120325,0.10934488,11283513775,49.492188
11283522606,-1.2490535,10.482956,0.7645068,11283522606,0.3744604,-0.46975538,0.1001819,11283522606,49.492188
11283531471,-1.274178,10.437492,0.6472585,11283531471,0.37934732,-0.4783075,0.09773844,11283531471,49.507812
11283540311,-1.2227324,10.432707,0.5778667,11283540311,0.37873647,-0.48075095,0.09040806,11283540311,49.507812
11283549153,-1.2035898,10.426724,0.55034924,11283549153,0.37140608,-0.47769663,0.08674286,11283549153,49.51953
11283558166,-1.125823,10.351351,0.634098,11283558166,0.3622431,-0.4709771,0.080634214,11283558166,49.51953
11283566849,-1.0301101,10.199407,0.6448657,11283566849,0.3494149,-0.46181414,0.0720821,11283566849,49.515625
11283575696,-1.0432707,10.140782,0.60059845,11283575696,0.3475823,-0.44715336,0.06291912,11283575696,49.515625
11283584546,-0.9798609,10.149158,0.47018966,11283584546,0.34269542,-0.42760566,0.047647487,11283584546,49.507812
11283593405,-0.9954142,10.158729,0.25842485,11283593405,0.3359759,-0.40439278,0.03481932,11283593405,49.507812
11283602252,-0.9595219,10.253245,0.0849452,11283602252,0.321926,-0.3726278,0.021380283,11283602252,49.507812
11283611110,-1.0169497,10.262816,0.050249275,11283611110,0.29871312,-0.34025195,0.013439035,11283611110,49.507812
11283619951,-1.0779666,10.101301,0.043070808,11283619951,0.2724459,-0.30787608,0.009162978,11283619951,49.496094
11283628794,-1.0875379,10.07139,0.07058827,11283628794,0.23640485,-0.27550024,0.0061086523,11283628794,49.496094
11283637638,-1.0923235,9.881161,0.18185452,11283637638,0.20158553,-0.2443461,0.0067195175,11283637638,49.51172
11283646484,-0.99302137,9.751948,0.31226337,11283646484,0.16737708,-0.2144137,0.002443461,11283646484,49.51172
11283655351,-0.95353985,9.638289,0.3385844,11283655351,0.13194689,-0.18448131,-0.0030543262,11283655351,49.48828
11283664200,-0.92482597,9.623933,0.32063824,11283664200,0.1001819,-0.15271631,-0.014049901,11283664200,49.48828
11283673048,-0.9487542,9.635897,0.23928227,11283673048,0.06841691,-0.118507855,-0.022602014,11283673048,49.5
11283681897,-0.92602235,9.754341,0.13998012,11283681897,0.034208454,-0.08246681,-0.031154128,11283681897,49.5
11283690746,-0.9798609,9.771091,0.1052842,11283690746,-0.0030543262,-0.047036625,-0.032986723,11283690746,49.5
11283699600,-0.98943216,9.83809,0.124426775,11283699600,-0.04337143,-0.008552114,-0.03726278,11283699600,49.5
11283708447,-1.0612168,9.741181,0.18305093,11283708447,-0.08674286,0.03359759,-0.040317107,11283708447,49.492188
11283717291,-1.0959128,9.716056,0.35533416,11283717291,-0.12767084,0.070249505,-0.0421497,11283717291,49.492188
11283726128,-1.1473584,9.646665,0.50129634,11283726128,-0.16493362,0.10323623,-0.0421497,11283726128,49.484375
11283734985,-1.1629118,9.5665045,0.6053841,11283734985,-0.19425514,0.13561209,-0.040317107,11283734985,49.484375
11283743831,-1.1222339,9.505488,0.6436693,11283743831,-0.21074851,0.16371189,-0.040317107,11283743831,49.5
11283752691,-1.2346965,9.454042,0.6029913,11283752691,-0.21685717,0.18325958,-0.037873644,11283752691,49.5
11283761523,-1.2406785,9.568898,0.53599226,11283761523,-0.2180789,0.1966986,-0.03604105,11283761523,49.51172
11283770378,-1.253839,9.610772,0.41754755,11283770378,-0.22235495,0.20952678,-0.03359759,11283770378,49.51172
11283779226,-1.3232309,9.702896,0.39481574,11283779226,-0.22418754,0.22174409,-0.030543262,11283779226,49.48047
11283788089,-1.3579268,9.820144,0.47976094,11283788089,-0.22602014,0.2302962,-0.027488936,11283788089,49.48047
11283796910,-1.4057833,9.82493,0.6221339,11283796910,-0.22602014,0.23457226,-0.017715093,11283796910,49.527344
11283805774,-1.3471591,9.773484,0.75613195,11283805774,-0.22418754,0.23640485,-0.012217305,11283805774,49.527344
11283814623,-1.3698909,9.678967,0.8709874,11283814623,-0.21868975,0.23579398,-0.0030543262,11283814623,49.503906
11283823465,-1.3627125,9.605987,0.9403793,11283823465,-0.21013765,0.23090707,0.005497787,11283823465,49.503906
11283832314,-1.3387842,9.633504,1.0193424,11283832314,-0.19792034,0.22785273,0.014660766,11283832314,49.484375
11283841166,-1.3351951,9.548559,1.0552348,11283841166,-0.18387043,0.22418754,0.02321288,11283841166,49.484375
11283850010,-1.3746766,9.611969,1.134198,11283850010,-0.16371189,0.21991149,0.028099801,11283850010,49.5
11283858871,-1.442872,9.59163,1.0636097,11283858871,-0.1423316,0.20647246,0.03726278,11283858871,49.5
11283867715,-1.4727824,9.700503,1.0468599,11283867715,-0.118507855,0.19303341,0.040927973,11283867715,49.5
11283876558,-1.5206388,9.804591,1.0815558,11283876558,-0.095294975,0.1777618,0.049480084,11283876558,49.5
11283885404,-1.4919249,9.775877,1.1042876,11283885404,-0.06841691,0.15882497,0.054367006,11283885404,49.51172
11283894253,-1.4871392,9.643075,1.180858,11283894253,-0.037873644,0.13744467,0.059864793,11283894253,49.51172
11283903104,-1.4679967,9.59163,1.1186446,11283903104,-0.0036651916,0.1142318,0.06536258,11283903104,49.472656
11283911956,-1.5553347,9.536594,1.0492527,11283911956,0.040317107,0.092240654,0.0720821,11283911956,49.472656
11283920801,-1.5433706,9.44806,0.9092726,11283920801,0.07391469,0.06963864,0.08246681,11283920801,49.476562
11283929664,-1.457229,9.323633,0.7896315,11283929664,0.10751228,0.051923547,0.09285152,11283929664,49.476562
11283938509,-1.2873386,9.360723,0.7728817,11283938509,0.13255776,0.04337143,0.100792766,11283938509,49.51172
11283947353,-1.2239288,9.415757,0.7848458,11283947353,0.15760323,0.037873644,0.10323623,11283947353,49.51172
11283956198,-1.2514462,9.449257,0.8554341,11283956198,0.18142697,0.029321533,0.106901415,11283956198,49.507812
11283965036,-1.329213,9.430114,0.86141616,11283965036,0.20280726,0.016493361,0.10873401,11283965036,49.507812
11283973889,-1.3567305,9.497113,0.8171489,11283973889,0.2321288,0,0.11301007,11283973889,49.515625
11283982732,-1.3495519,9.462418,0.7322037,11283982732,0.2565634,-0.018936822,0.11728613,11283982732,49.515625
11283991603,-1.3316058,9.491131,0.6831509,11283991603,0.2724459,-0.035430185,0.11789699,11283991603,49.48047
11284000442,-1.2430713,9.504292,0.66161543,11284000442,0.28588495,-0.05009095,0.118507855,11284000442,49.48047
11284009281,-1.1557333,9.404989,0.69272214,11284009281,0.29749137,-0.06169739,0.11789699,11284009281,49.484375
11284018187,-1.1282159,9.35474,0.6197411,11284018187,0.30726522,-0.07147124,0.11484267,11284018187,49.484375
11284026985,-1.1473584,9.381062,0.5419743,11284026985,0.31887165,-0.08002335,0.11178834,11284026985,49.535156
11284035831,-1.1090733,9.419347,0.44027936,11284035831,0.32498032,-0.086132,0.10567969,11284035831,49.535156
11284044673,-1.0695918,9.42174,0.32063824,11284044673,0.32803464,-0.08857546,0.0983493,11284044673,49.496094
11284053520,-0.94277215,9.6993065,0.22851457,11284053520,0.3231477,-0.081855945,0.08979719,11284053520,49.496094
11284062387,-1.1521441,9.611969,0.21296121,11284062387,0.30604348,-0.073303826,0.08735373,11284062387,49.507812
11284071240,-1.0085747,9.615558,0.2428715,11284071240,0.29016098,-0.06963864,0.07696902,11284071240,49.507812
11284080077,-1.0743774,9.602397,0.2440679,11284080077,0.258396,-0.059253927,0.08002335,11284080077,49.476562
11284088937,-1.026521,9.476774,0.2943172,11284088937,0.23884831,-0.050701816,0.07391469,11284088937,49.476562
11284097780,-1.0025927,9.529416,0.34576288,11284097780,0.21380283,-0.0421497,0.07513642,11284097780,49.535156
11284106623,-0.9068798,9.595219,0.22253251,11284106623,0.18203785,-0.030543262,0.06719518,11284106623,49.535156
11284115479,-0.8985049,9.461221,0.25124636,11284115479,0.16310102,-0.016493361,0.056199603,11284115479,49.507812
11284124322,-0.7645068,9.525827,0.17467605,11284124322,0.124005646,-0.009162978,0.04520403,11284124322,49.507812
11284133174,-0.79920274,9.571291,0.18065812,11284133174,0.09101892,-0.005497787,0.028099801,11284133174,49.496094
11284142027,-0.7920243,9.546165,0.22731815,11284142027,0.054367006,0.00061086525,0.014049901,11284142027,49.496094
11284150867,-0.78723866,9.570094,0.14117654,11284150867,0.015882496,0.01038471,-0.0061086523,11284150867,49.5
11284159727,-0.8578269,9.688539,0.07537391,11284159727,-0.020158553,0.023823744,-0.02076942,11284159727,49.5
11284168561,-0.849452,9.656236,-0.031106694,11284168561,-0.062308256,0.036651913,-0.036651913,11284168561,49.527344
11284177405,-0.9810573,9.652647,0.008374879,11284177405,-0.100792766,0.047647487,-0.043982297,11284177405,49.527344
11284186270,-1.0013963,9.634701,0.041874398,11284186270,-0.14782938,0.05497787,-0.050701816,11284186270,49.523438
11284195115,-1.0372887,9.518648,0.2009971,11284195115,-0.18753563,0.061086524,-0.054367006,11284195115,49.523438
11284203951,-0.98584294,9.445667,0.30867413,11284203951,-0.2302962,0.06414085,-0.06047566,11284203951,49.496094
11284212813,-0.9882358,9.461221,0.4031906,11284212813,-0.26511553,0.06963864,-0.06780604,11284212813,49.496094
11284221652,-0.9954142,9.485149,0.54675996,11284221652,-0.2919936,0.06963864,-0.07391469,11284221652,49.507812
11284230495,-0.997807,9.499506,0.5886344,11284230495,-0.31581733,0.06719518,-0.080634214,11284230495,49.507812
11284239364,-1.0169497,9.479167,0.61854464,11284239364,-0.3378085,0.059864793,-0.086132,11284239364,49.476562
11284248196,-1.0540384,9.48156,0.62452674,11284248196,-0.35918877,0.051923547,-0.09101892,11284248196,49.476562
11284257039,-1.0983056,9.55813,0.65682983,11284257039,-0.376293,0.04153884,-0.09162979,11284257039,49.492188
11284265908,-1.0923235,9.552148,0.74536425,11284265908,-0.39400807,0.03176499,-0.08979719,11284265908,49.492188
11284274752,-1.1377872,9.565309,0.87218386,11284274752,-0.40622538,0.022602014,-0.09040806,11284274752,49.507812
11284283591,-1.1473584,9.513863,0.9631111,11284283591,-0.41172317,0.008552114,-0.09040806,11284283591,49.507812
11284292445,-1.1581261,9.480363,1.0360922,11284292445,-0.40622538,-0.005497787,-0.08979719,11284292445,49.51953
11284301283,-1.18684,9.505488,1.0875379,11284301283,-0.39400807,-0.02321288,-0.08735373,11284301283,49.51953
11284310132,-1.2059826,9.439685,1.1533405,11284310132,-0.3817908,-0.042760566,-0.08368854,11284310132,49.515625
11284319002,-1.180858,9.473185,1.2598212,11284319002,-0.36713,-0.06414085,-0.07880162,11284319002,49.515625
11284327845,-1.1964114,9.432507,1.3782659,11284327845,-0.34513888,-0.08979719,-0.07452556,11284327845,49.48828
11284336679,-1.2167503,9.396614,1.5349957,11284336679,-0.3109304,-0.12095132,-0.073303826,11284336679,49.48828
11284345535,-1.2466606,9.41815,1.6438692,11284345535,-0.2761111,-0.1563815,-0.07269296,11284345535,49.492188
11284354381,-1.2969099,9.413364,1.7180467,11284354381,-0.22907446,-0.1966986,-0.069027774,11284354381,49.492188
11284363228,-1.3459628,9.360723,1.7431713,11284363228,-0.17592919,-0.24190263,-0.062308256,11284363228,49.492188
11284372073,-1.2849457,9.316455,1.7324036,11284372073,-0.1282817,-0.28344148,-0.055588737,11284372073,49.492188
11284380931,-1.2753744,9.129815,1.7371893,11284380931,-0.07941248,-0.32375857,-0.04642576,11284380931,49.51953
11284389771,-1.1724831,9.007781,1.7563318,11284389771,-0.030543262,-0.3585779,-0.04337143,11284389771,49.51953
11284398634,-1.1389836,9.029316,1.7647067,11284398634,0.013439035,-0.39278635,-0.04153884,11284398634,49.503906
11284407478,-1.0731809,9.050852,1.7383857,11284407478,0.055588737,-0.42271876,-0.044593163,11284407478,49.503906
11284416332,-1.1174482,9.152547,1.7838492,11284416332,0.0983493,-0.44959682,-0.04520403,11284416332,49.507812
11284425167,-1.1090733,9.206385,1.7647067,11284425167,0.13805555,-0.4746423,-0.047036625,11284425167,49.507812
11284434033,-1.1521441,9.220742,1.7958134,11284434033,0.18020524,-0.4978552,-0.048258353,11284434033,49.5
11284442872,-1.1042876,9.377472,1.7611175,11284442872,0.21502456,-0.516792,-0.049480084,11284442872,49.5
11284451712,-1.0923235,9.35833,1.6737795,11284451712,0.25167647,-0.53023106,-0.050701816,11284451712,49.51953
11284460570,-1.1030912,9.263813,1.6797615,11284460570,0.2846632,-0.5448918,-0.05009095,11284460570,49.51953
11284469416,-1.0480564,9.29133,1.6570296,11284469416,0.3109304,-0.56077427,-0.051923547,11284469416,49.53125
11284478266,-0.9942178,9.327223,1.6247265,11284478266,0.33658674,-0.5699373,-0.05375614,11284478266,49.53125
11284487110,-0.9176475,9.212367,1.6151553,11284487110,0.3567453,-0.57360244,-0.059864793,11284487110,49.539062
11284495952,-0.8566305,9.250652,1.5816557,11284495952,0.37568212,-0.57360244,-0.06841691,11284495952,49.539062
11284504803,-0.81954175,9.355937,1.4093726,11284504803,0.3903429,-0.5699373,-0.077579886,11284504803,49.507812
11284513670,-0.8422736,9.390633,1.2753744,11284513670,0.40133846,-0.55955255,-0.089186326,11284513670,49.507812
11284522504,-0.8913264,9.383454,1.1377872,11284522504,0.40561453,-0.54367006,-0.0983493,11284522504,49.496094
11284531369,-0.8446664,9.353543,0.93320084,11284531369,0.40439278,-0.52473325,-0.10751228,11284531369,49.496094
11284540211,-0.8554341,9.304491,0.83748794,11284540211,0.40500367,-0.49480084,-0.11362094,11284540211,49.476562
11284549051,-0.87338024,9.220742,0.75613195,11284549051,0.39950588,-0.45937067,-0.11911872,11284549051,49.476562
11284557895,-0.89730847,9.157332,0.7262217,11284557895,0.39767328,-0.4202753,-0.124005646,11284557895,49.535156
11284566747,-0.8673982,9.1681,0.7082755,11284566747,0.3915646,-0.3830125,-0.12705997,11284566747,49.535156
11284575601,-0.8243274,9.142975,0.67836523,11284575601,0.38545597,-0.3463606,-0.1301143,11284575601,49.48047
11284584450,-0.7860422,9.186047,0.6759724,11284584450,0.3726278,-0.31215215,-0.13744467,11284584450,49.48047
11284593295,-0.77766734,9.236296,0.6149554,11284593295,0.3555236,-0.27550024,-0.14660765,11284593295,49.5
11284602152,-0.8327023,9.37149,0.57427746,11284602152,0.34269542,-0.23518312,-0.15332718,11284602152,49.5
11284611005,-0.8673982,9.389436,0.43908295,11284611005,0.3182608,-0.19425514,-0.15699236,11284611005,49.51172
11284619850,-0.8961121,9.475577,0.3589234,11284619850,0.29077184,-0.15149458,-0.15943582,11284619850,49.51172
11284628689,-0.9164511,9.512667,0.2428715,11284628689,0.2565634,-0.10751228,-0.15699236,11284628689,49.472656
11284637533,-0.95473623,9.495916,0.1794617,11284637533,0.21991149,-0.056199603,-0.15027285,11284637533,49.472656
11284646392,-0.89491564,9.466006,0.14237295,11284646392,0.17715092,0.004276057,-0.1441642,11284646392,49.51172
11284655242,-0.930808,9.378669,0.076570325,11284655242,0.12767084,0.06536258,-0.1386664,11284655242,49.51172
11284664087,-0.9619147,9.322437,0.111266255,11284664087,0.07941248,0.118507855,-0.13500121,11284664087,49.496094
11284672927,-1.0037891,9.305687,0.08015956,11284672927,0.029321533,0.16615535,-0.13072516,11284672927,49.496094
11284681785,-1.0001999,9.334401,0.06580263,11284681785,-0.018325957,0.21930063,-0.12461651,11284681785,49.5
11284690624,-0.9272188,9.438489,0.10887343,11284690624,-0.06414085,0.2742785,-0.12156218,11284690624,49.5
11284699487,-1.0049855,9.492328,0.13399807,11284699487,-0.106901415,0.32498032,-0.11728613,11284699487,49.484375
11284708332,-1.0947163,9.488738,0.20219351,11284708332,-0.14538592,0.37201694,-0.11301007,11284708332,49.484375
11284717176,-1.1641082,9.401401,0.2656033,11284717176,-0.17654006,0.4166101,-0.103847094,11284717176,49.492188
11284726026,-1.0935199,9.391829,0.27038896,11284726026,-0.20158553,0.45753807,-0.096516706,11284726026,49.492188
11284734884,-1.1617154,9.239884,0.31106696,11284734884,-0.22174409,0.49357912,-0.08857546,11284734884,49.51172
11284743722,-1.1641082,9.221938,0.3361916,11284743722,-0.23945917,0.52656585,-0.08307768,11284743722,49.51172
11284752583,-1.166501,9.237492,0.3696911,11284752583,-0.24740042,0.5522222,-0.07819075,11284752583,49.515625
11284761418,-1.1485549,9.172886,0.45224348,11284761418,-0.25411993,0.5717699,-0.07513642,11284761418,49.515625
11284770270,-1.1820544,9.209974,0.47856453,11284770270,-0.25961772,0.5833763,-0.07452556,11284770270,49.523438
11284779123,-1.2083755,9.243474,0.5024927,11284779123,-0.25778514,0.5907067,-0.0720821,11284779123,49.523438
11284787967,-1.2167503,9.263813,0.5168497,11284787967,-0.25228736,0.59559363,-0.07086037,11284787967,49.48828
11284796802,-1.2299109,9.282955,0.5132605,11284796802,-0.24678956,0.59864795,-0.06780604,11284796802,49.48828
11284805662,-1.2717853,9.276974,0.552742,11284805662,-0.23823744,0.6017023,-0.064751714,11284805662,49.5
11284814520,-1.2717853,9.236296,0.6221339,11284814520,-0.22418754,0.6053675,-0.062308256,11284814520,49.5
11284823353,-1.2993027,9.099904,0.7118647,11284823353,-0.20708331,0.6096435,-0.058643065,11284823353,49.476562
11284832202,-1.3459628,9.116654,0.7956135,11284832202,-0.18081611,0.6072,-0.053145275,11284832202,49.476562
11284841067,-1.3232309,9.126225,0.77766734,11284841067,-0.15027285,0.60231316,-0.05009095,11284841067,49.46875
11284849902,-1.3998013,9.046066,0.8422736,11284849902,-0.11362094,0.59498274,-0.047036625,11284849902,49.46875
11284858749,-1.430908,9.084352,0.9284152,11284858749,-0.09101892,0.58276546,-0.042760566,11284858749,49.507812
11284867593,-1.4859428,9.084352,0.9798609,11284867593,-0.06658431,0.5662721,-0.03359759,11284867593,49.507812
11284876443,-1.4703895,9.068798,1.1282159,11284876443,-0.039095376,0.54428095,-0.022602014,11284876443,49.484375
11284885295,-1.4476577,9.06162,1.2000005,11284885295,-0.016493361,0.5186246,-0.01038471,11284885295,49.484375
11284894161,-1.4763715,9.097511,1.2514462,11284894161,0.007941248,0.49296826,0.0036651916,11284894161,49.46875
11284903004,-1.5050855,9.066405,1.2299109,11284903004,0.03604105,0.4636467,0.016493361,11284903004,49.46875
11284911842,-1.5230316,9.09153,1.2251252,11284911842,0.06780604,0.42943826,0.029932396,11284911842,49.5
11284920700,-1.4536397,9.131011,1.1306087,11284920700,0.093462385,0.39645153,0.042760566,11284920700,49.5
11284929544,-1.4333007,9.055637,1.0313065,11284929544,0.12156218,0.36835176,0.055588737,11284929544,49.507812
11284938390,-1.4045869,9.044869,0.9834501,11284938390,0.15027285,0.34269542,0.06414085,11284938390,49.507812
11284947234,-1.4153546,9.090333,0.8673982,11284947234,0.1777618,0.31764993,0.0720821,11284947234,49.507812
11284956086,-1.3842479,9.041281,0.7692925,11284956086,0.21013765,0.2932153,0.07819075,11284956086,49.507812
11284964933,-1.3878372,8.962317,0.6257231,11284964933,0.24129178,0.26511553,0.08246681,11284964933,49.484375
11284973787,-1.3256238,9.019745,0.51206404,11284973787,0.2657264,0.24190263,0.08368854,11284973787,49.484375
11284982647,-1.3926228,8.971889,0.52283174,11284982647,0.2779437,0.22235495,0.08857546,11284982647,49.484375
11284991489,-1.3663018,8.927621,0.67836523,11284991489,0.28221974,0.20586158,0.09407325,11284991489,49.484375
11285000334,-1.1700903,8.904889,0.75972116,11285000334,0.28527406,0.18448131,0.09712757,11285000334,49.46875
11285009187,-1.1294123,8.896515,0.8255238,11285009187,0.28527406,0.16126843,0.09712757,11285009187,49.46875
11285018032,-1.1569297,8.865408,0.8470592,11285018032,0.2883284,0.14049901,0.093462385,11285018032,49.5
11285026875,-1.1330016,8.943174,0.78843504,11285026875,0.2883284,0.119729586,0.08979719,11285026875,49.5
11285035729,-1.0839486,8.993423,0.6364908,11285035729,0.2846632,0.1020145,0.084910266,11285035729,49.476562
11285044579,-1.0600204,9.06162,0.54436713,11285044579,0.27855456,0.086132,0.07941248,11285044579,49.476562
11285053423,-0.8662018,9.292527,0.45224348,11285053423,0.258396,0.07269296,0.070249505,11285053423,49.476562
11285062265,-1.0624132,9.272188,0.4331009,11285062265,0.23762658,0.065973446,0.061086524,11285062265,49.476562
11285071114,-1.1186446,9.071191,0.5407779,11285071114,0.22540927,0.050701816,0.050701816,11285071114,49.507812
11285079972,-1.1222339,9.199206,0.5371887,11285079972,0.20219639,0.034208454,0.048258353,11285079972,49.507812
11285088817,-1.0456635,9.119047,0.5563313,11285088817,0.19120082,0.018936822,0.035430185,11285088817,49.476562
11285097660,-1.0145568,9.233903,0.5694918,11285097660,0.17287487,0.004276057,0.030543262,11285097660,49.476562
11285106521,-0.86979103,9.430114,0.40677986,11285106521,0.15332718,-0.0030543262,0.015882496,11285106521,49.484375
11285115371,-0.93679005,9.311669,0.4426722,11285115371,0.13805555,-0.0067195175,0.0036651916,11285115371,49.484375
11285124223,-0.8865408,9.44806,0.38524446,11285124223,0.105068825,-0.009773844,-0.010995574,11285124223,49.507812
11285133071,-0.9870393,9.4636135,0.3290131,11285133071,0.077579886,-0.012217305,-0.023823744,11285133071,49.507812
11285141902,-0.9212367,9.564112,0.34217364,11285141902,0.045814894,-0.017104227,-0.035430185,11285141902,49.492188
11285150756,-0.9451649,9.474381,0.2835495,11285150756,0.0030543262,-0.02687807,-0.04886922,11285150756,49.492188
11285159612,-1.0217353,9.460024,0.38763726,11285159612,-0.03481932,-0.034208454,-0.059253927,11285159612,49.484375
11285168449,-0.9834501,9.533006,0.39960137,11285168449,-0.08307768,-0.0421497,-0.07269296,11285168449,49.484375
11285177293,-1.105484,9.531809,0.5132605,11285177293,-0.11789699,-0.05375614,-0.07941248,11285177293,49.476562
11285186159,-1.1533405,9.6071825,0.61734825,11285186159,-0.15210545,-0.070249505,-0.08674286,11285186159,49.476562
11285195007,-1.2705889,9.611969,0.6664011,11285195007,-0.1777618,-0.08857546,-0.08857546,11285195007,49.507812
11285203861,-1.2729816,9.62154,0.72023964,11285203861,-0.19425514,-0.10751228,-0.087964594,11285203861,49.507812
11285212695,-1.329213,9.559326,0.6891329,11285212695,-0.21380283,-0.12461651,-0.08368854,11285212695,49.484375
11285221552,-1.2705889,9.579665,0.7513463,11285221552,-0.22785273,-0.1423316,-0.07819075,11285221552,49.484375
11285230393,-1.2526426,9.625129,0.76570326,11285230393,-0.24556783,-0.15882497,-0.0720821,11285230393,49.484375
11285239245,-1.2514462,9.65145,0.77766734,11285239245,-0.25778514,-0.1740966,-0.069027774,11285239245,49.484375
11285248124,-1.18684,9.695718,0.85064846,11285248124,-0.26939157,-0.1881465,-0.06841691,11285248124,49.507812
11285256945,-1.2382857,9.602397,0.8769695,11285256945,-0.28160888,-0.20280726,-0.06536258,11285256945,49.507812
11285265787,-1.2873386,9.5868435,0.9954142,11285265787,-0.28710666,-0.22052236,-0.06414085,11285265787,49.46875
11285274646,-1.3363914,9.530613,1.0911272,11285274646,-0.2932153,-0.24495697,-0.055588737,11285274646,49.46875
11285283495,-1.3016955,9.634701,1.1916257,11285283495,-0.29260445,-0.27183503,-0.05009095,11285283495,49.492188
11285292341,-1.3136597,9.5964155,1.2335001,11285292341,-0.2950479,-0.29871312,-0.0421497,11285292341,49.492188
11285301178,-1.2191432,9.577272,1.2801601,11285301178,-0.29077184,-0.32498032,-0.039095376,11285301178,49.46875
11285310032,-1.3387842,9.450453,1.3328022,11285310032,-0.28893927,-0.3475823,-0.032375857,11285310032,49.46875
11285318886,-1.3495519,9.49472,1.3519448,11285318886,-0.28160888,-0.36774087,-0.025045475,11285318886,49.492188
11285327730,-1.274178,9.328419,1.3387842,11285327730,-0.26267207,-0.38789943,-0.015271631,11285327730,49.492188
11285336588,-1.2370893,9.220742,1.3244274,11285336588,-0.23762658,-0.41050145,-0.008552114,11285336588,49.5
11285345425,-1.2562319,9.171689,1.2634103,11285345425,-0.21074851,-0.43799037,-0.0067195175,11285345425,49.5
11285354280,-1.2801601,9.176475,1.2753744,11285354280,-0.17654006,-0.4642576,-0.002443461,11285354280,49.5
11285363132,-1.2107682,9.286545,1.308874,11285363132,-0.14721853,-0.48930305,0.0018325958,11285363132,49.5
11285371977,-1.1964114,9.280562,1.3854443,11285371977,-0.116675265,-0.51251596,0.004886922,11285371977,49.460938
11285380816,-1.146162,9.275777,1.4823537,11285380816,-0.08124508,-0.5314528,0.008552114,11285380816,49.460938
11285389672,-1.1006985,9.164511,1.4919249,11285389672,-0.04337143,-0.54428095,0.008552114,11285389672,49.5
11285398513,-1.0875379,9.18126,1.4991034,11285398513,-0.0036651916,-0.552833,0.007941248,11285398513,49.5
11285407357,-1.0887343,9.269794,1.4249259,11285407357,0.032375857,-0.56016344,0.007330383,11285407357,49.460938
11285416228,-1.1078769,9.245867,1.3339987,11285416228,0.07086037,-0.56138515,0.010995574,11285416228,49.460938
11285425061,-1.0911272,9.178867,1.2370893,11285425061,0.106901415,-0.56138515,0.01160644,11285425061,49.5
11285433917,-1.0540384,9.093923,1.1497513,11285433917,0.13988814,-0.55771995,0.009773844,11285433917,49.5
11285442771,-1.0193424,9.0544405,1.1042876,11285442771,0.17104226,-0.5491679,0.009162978,11285442771,49.46875
11285451613,-0.97507524,9.042477,1.0923235,11285451613,0.20097467,-0.54305923,0.002443461,11285451613,49.46875
11285460469,-0.997807,8.973084,1.0648061,11285460469,0.2302962,-0.5363397,-0.004276057,11285460469,49.476562
11285469311,-0.93679005,9.037691,1.0360922,11285469311,0.25534168,-0.5296202,-0.016493361,11285469311,49.476562
11285478157,-0.9236295,9.072387,1.0157533,11285478157,0.27977628,-0.52290064,-0.023823744,11285478157,49.476562
11285487001,-0.8566305,9.026923,1.0671989,11285487001,0.3036,-0.5119051,-0.03726278,11285487001,49.476562
11285495858,-0.9619147,9.012567,1.0432707,11285495858,0.32375857,-0.4990769,-0.047036625,11285495858,49.5
11285504695,-0.95832545,9.019745,0.9726824,11285504695,0.35246924,-0.48624873,-0.058643065,11285504695,49.5
11285513564,-1.0241281,8.983852,0.910469,11285513564,0.37812558,-0.47219884,-0.06841691,11285513564,49.5
11285522412,-1.0420742,9.001799,0.74177504,11285522412,0.40439278,-0.45814893,-0.076358154,11285522412,49.5
11285531252,-1.0253245,8.944371,0.62093747,11285531252,0.42760566,-0.4428773,-0.08674286,11285531252,49.51953
11285540092,-0.99900347,8.895318,0.5276174,11285540092,0.44226643,-0.42271876,-0.09712757,11285540092,49.51953
11285548949,-0.95473623,9.019745,0.48215377,11285548949,0.45081854,-0.39645153,-0.10873401,11285548949,49.48828
11285557792,-0.9379865,9.037691,0.50368917,11285557792,0.45814893,-0.36774087,-0.118507855,11285557792,49.48828
11285566640,-0.8997013,9.186047,0.4749753,11285566640,0.45265114,-0.3359759,-0.1282817,11285566640,49.535156
11285575502,-0.93679005,9.340384,0.4426722,11285575502,0.4465425,-0.3036,-0.13561209,11285575502,49.535156
11285584348,-1.0049855,9.4229355,0.45104706,11285584348,0.43799037,-0.2706133,-0.14049901,11285584348,49.48828
11285593199,-1.0444671,9.353543,0.424726,11285593199,0.4251622,-0.24007004,-0.14172074,11285593199,49.48828
11285602041,-1.0480564,9.41456,0.30269206,11285602041,0.41172317,-0.20891592,-0.14355333,11285602041,49.484375
11285610880,-1.0289137,9.4432745,0.14596218,11285610880,0.39950588,-0.17470746,-0.14477506,11285610880,49.484375
11285619746,-0.98584294,9.489935,0.038285162,11285619746,0.3817908,-0.13927728,-0.1459968,11285619746,49.476562
11285628583,-1.012164,9.589237,-0.083748795,11285628583,0.35979962,-0.10323623,-0.14477506,11285628583,49.476562
11285637427,-1.0707881,9.671789,-0.17706887,11285637427,0.3378085,-0.06169739,-0.14294247,11285637427,49.5
11285646279,-1.1772687,9.732806,-0.14955142,11285646279,0.31398472,-0.020158553,-0.13744467,11285646279,49.5
11285655137,-1.2011969,9.796216,-0.1363909,11285655137,0.2864958,0.018936822,-0.1301143,11285655137,49.484375
11285663977,-1.1928221,9.84168,-0.07298109,11285663977,0.25411993,0.055588737,-0.12095132,11285663977,49.484375
11285672831,-1.1712867,9.954143,-0.02751746,11285672831,0.21685717,0.09040806,-0.11056661,11285672831,49.484375
11285681668,-1.2215359,9.966106,0.016749758,11285681668,0.18325958,0.12461651,-0.1001819,11285681668,49.484375
11285690531,-1.2454642,9.96491,0.032303106,11285690531,0.14721853,0.15760323,-0.08857546,11285690531,49.484375
11285699383,-1.2777673,9.919446,0.0047856453,11285699383,0.1142318,0.19181168,-0.07513642,11285699383,49.484375
11285708221,-1.2562319,10.017552,-0.033499517,11285708221,0.080634214,0.22357668,-0.06291912,11285708221,49.46875
11285717065,-1.2311072,10.028319,-0.111266255,11285717065,0.047647487,0.25228736,-0.051923547,11285717065,49.46875
11285725917,-1.247857,10.068997,-0.14237295,11285725917,0.015271631,0.28344148,-0.04153884,11285725917,49.476562
11285734765,-1.2586247,10.10489,-0.13160525,11285734765,-0.02321288,0.31520647,-0.030543262,11285734765,49.476562
11285743619,-1.2514462,10.110872,-0.0059820567,11285743619,-0.06719518,0.34513888,-0.018325957,11285743619,49.5
11285752462,-1.2370893,10.150353,0.14117654,11285752462,-0.11056661,0.36713,-0.008552114,11285752462,49.5
11285761324,-1.2610176,10.1599245,0.28713873,11285761324,-0.15271631,0.38789943,-0.00061086525,11285761324,49.492188
11285770155,-1.2849457,10.158729,0.4139583,11285770155,-0.1881465,0.40622538,0.01282817,11285770155,49.492188
11285779011,-1.2717853,10.010373,0.51086766,11285779011,-0.21502456,0.42332962,0.02321288,11285779011,49.5
11285787855,-1.3244274,10.080962,0.552742,11285787855,-0.24007004,0.4361578,0.03359759,11285787855,49.5
11285796710,-1.2921243,10.052248,0.5407779,11285796710,-0.26328292,0.44165558,0.042760566,11285796710,49.484375
11285805567,-1.3184453,10.0881405,0.65084773,11285805567,-0.2742785,0.4447099,0.050701816,11285805567,49.484375
11285814401,-1.2095718,10.0163555,0.6197411,11285814401,-0.28771752,0.44776422,0.055588737,11285814401,49.476562
11285823248,-1.1976078,9.976874,0.6771688,11285823248,-0.29443705,0.44959682,0.059253927,11285823248,49.476562
11285832094,-1.14018,10.122836,0.7178468,11285832094,-0.29749137,0.44959682,0.06047566,11285832094,49.507812
11285840948,-1.2179468,10.054641,0.8135597,11285840948,-0.2950479,0.44898596,0.06352998,11285840948,49.507812
11285849814,-1.1497513,10.052248,0.8853444,11285849814,-0.29932398,0.4392121,0.06352998,11285849814,49.476562
11285858660,-1.1760724,10.110872,0.9607183,11285858660,-0.29810223,0.4166101,0.062308256,11285858660,49.476562
11285867504,-1.2358929,10.060623,1.0217353,11285867504,-0.29077184,0.39522982,0.06169739,11285867504,49.476562
11285876337,-1.2215359,9.885947,1.0540384,11285876337,-0.28160888,0.37323865,0.06047566,11285876337,49.476562
11285885196,-1.1940185,9.768699,1.1653047,11285885196,-0.2669481,0.3475823,0.059864793,11285885196,49.476562
11285894034,-1.0971092,9.749556,1.2227324,11285894034,-0.25534168,0.321926,0.05681047,11285894034,49.476562
11285902894,-1.0863415,9.54497,1.3256238,11285902894,-0.2302962,0.29626966,0.04886922,11285902894,49.484375
11285911744,-1.0827522,9.47797,1.4668003,11285911744,-0.20219639,0.26939157,0.040317107,11285911744,49.484375
11285920598,-1.0683953,9.41815,1.4919249,11285920598,-0.16920967,0.2406809,0.031154128,11285920598,49.5
11285929441,-1.0396814,9.471989,1.5433706,11285929441,-0.12705997,0.204029,0.018325957,11285929441,49.5
11285938293,-1.0157533,9.436096,1.4979069,11285938293,-0.08124508,0.16920967,0.0061086523,11285938293,49.492188
11285947137,-1.026521,9.445667,1.4548361,11285947137,-0.032375857,0.13683382,-0.009162978,11285947137,49.492188
11285955988,-0.997807,9.52822,1.3818551,11285955988,0.007941248,0.1020145,-0.02321288,11285955988,49.507812
11285964830,-1.0145568,9.501899,1.3555341,11285964830,0.05375614,0.061086524,-0.03970624,11285964830,49.507812
11285973680,-1.1030912,9.474381,1.3986049,11285973680,0.09896017,0.021991149,-0.05497787,11285973680,49.476562
11285982520,-1.0731809,9.387043,1.3663018,11285982520,0.14660765,-0.018325957,-0.06719518,11285982520,49.476562
11285991386,-1.1234303,9.293723,1.3926228,11285991386,0.19486602,-0.05681047,-0.07819075,11285991386,49.492188
11286000221,-1.0899308,9.285348,1.4560326,11286000221,0.23457226,-0.09285152,-0.09162979,11286000221,49.492188
11286009073,-1.0289137,9.327223,1.4727824,11286009073,0.2773328,-0.12644911,-0.10873401,11286009073,49.445312
11286018035,-1.1018949,9.3308115,1.4620147,11286018035,0.31337386,-0.15821409,-0.122783914,11286018035,49.445312
11286026764,-1.1318051,9.403793,1.4739788,11286026764,0.34697145,-0.19303341,-0.13561209,11286026764,49.492188
11286035628,-1.0779666,9.412168,1.4596218,11286035628,0.37873647,-0.22540927,-0.14538592,11286035628,49.492188
11286044479,-1.0516455,9.51147,1.3974084,11286044479,0.40744713,-0.25289822,-0.15454891,11286044479,49.476562
11286053326,-0.9619147,9.695718,1.2442678,11286053326,0.4361578,-0.27488935,-0.16737708,11286053326,49.476562
11286062171,-1.0348958,9.632308,1.1126626,11286062171,0.45998153,-0.28588495,-0.18325958,11286062171,49.476562
11286071011,-1.2035898,9.416953,1.1485549,11286071011,0.48502702,-0.30726522,-0.19364429,11286071011,49.476562
11286079857,-1.1521441,9.467203,1.1210374,11286079857,0.5027421,-0.33353242,-0.19914207,11286079857,49.492188
11286088708,-1.2179468,9.373882,1.0313065,11286088708,0.5314528,-0.36285394,-0.204029,11286088708,49.492188
11286097552,-1.1126626,9.425328,0.9595219,11286097552,0.55955255,-0.38606682,-0.20891592,11286097552,49.5
11286106404,-1.0277174,9.5868435,0.73100734,11286106404,0.5723807,-0.39828414,-0.22052236,11286106404,49.5
11286115250,-1.0827522,9.61795,0.60658056,11286115250,0.593761,-0.40561453,-0.2321288,11286115250,49.460938
11286124109,-1.0983056,9.713663,0.45942193,11286124109,0.59620446,-0.41599923,-0.24312437,11286124109,49.460938
11286132964,-1.2251252,9.7196455,0.29790643,11286132964,0.5888741,-0.42821655,-0.24862215,11286132964,49.484375
11286141794,-1.1988041,9.84168,0.2321038,11286141794,0.5821546,-0.43249258,-0.25350907,11286141794,49.484375
11286150666,-1.2299109,9.829716,0.14237295,11286150666,0.56016344,-0.42760566,-0.2510656,11286150666,49.5
11286159506,-1.2574283,9.933804,0.08015956,11286159506,0.539394,-0.41599923,-0.24740042,11286159506,49.5
11286168360,-1.3304094,10.028319,0.016749758,11286168360,0.5119051,-0.398895,-0.23701571,11286168360,49.492188
11286177204,-1.3232309,10.013963,-0.10049855,11286177204,0.4831944,-0.37751472,-0.22418754,11286177204,49.492188
11286186036,-1.3794622,9.988838,-0.20458634,11286186036,0.45081854,-0.3567453,-0.20769419,11286186036,49.507812
11286194902,-1.3866407,10.01157,-0.3493521,11286194902,0.41050145,-0.33841935,-0.19364429,11286194902,49.507812
11286203746,-1.4129617,9.934999,-0.43788654,11286203746,0.37018433,-0.32620203,-0.1777618,11286203746,49.460938
11286212604,-1.4177474,10.009177,-0.43788654,11286212604,0.32498032,-0.31520647,-0.16310102,11286212604,49.460938
11286221453,-1.4273187,9.826126,-0.43429732,11286221453,0.27916542,-0.30115658,-0.1459968,11286221453,49.484375
11286230303,-1.4009976,9.690931,-0.3182454,11286230303,0.24251351,-0.28344148,-0.12889257,11286230303,49.484375
11286239132,-1.4141582,9.680164,-0.36610186,11286239132,0.20525073,-0.26083946,-0.11056661,11286239132,49.507812
11286248039,-1.4751751,9.62154,-0.3589234,11286248039,0.17898351,-0.23762658,-0.093462385,11286248039,49.507812
11286256837,-1.4297116,9.690931,-0.3481557,11286256837,0.14905111,-0.21930063,-0.07941248,11286256837,49.492188
11286265685,-1.5134603,9.665807,-0.41156548,11286265685,0.119729586,-0.20341812,-0.062308256,11286265685,49.492188
11286274526,-1.625923,9.723235,-0.36251262,11286274526,0.09407325,-0.17898351,-0.042760566,11286274526,49.46875
11286283383,-1.570888,9.688539,-0.45583272,11286283383,0.061086524,-0.14049901,-0.017104227,11286283383,49.46875
11286292230,-1.4979069,9.614362,-0.42831525,11286292230,0.03359759,-0.118507855,0.005497787,11286292230,49.492188
11286301091,-1.6295122,9.560523,-0.29910284,11286301091,0.002443461,-0.09896017,0.025045475,11286301091,49.492188
11286309923,-1.585245,9.504292,-0.2727818,11286309923,-0.026267206,-0.08246681,0.049480084,11286309923,49.484375
11286318772,-1.5278172,9.458828,-0.17108682,11286318772,-0.05009095,-0.069027774,0.064751714,11286318772,49.484375
11286327616,-1.4895321,9.378669,-0.13160525,11286327616,-0.08246681,-0.061086524,0.086132,11286327616,49.476562
11286336480,-1.3280165,9.432507,-0.11724831,11286336480,-0.1142318,-0.047036625,0.09712757,11286336480,49.476562
11286345318,-1.3232309,9.288938,-0.051445685,11286345318,-0.14538592,-0.031154128,0.112399206,11286345318,49.5
11286354160,-1.2394822,9.315259,-0.022731815,11286354160,-0.1777618,-0.015271631,0.11728613,11286354160,49.5
11286363016,-1.3519448,9.47797,-0.022731815,11286363016,-0.20891592,-0.0030543262,0.1282817,11286363016,49.4375
11286371875,-1.3938192,9.5353985,-0.0023928226,11286371875,-0.23396139,0.005497787,0.13744467,11286371875,49.4375
11286380721,-1.4847465,9.378669,0.09810573,11286380721,-0.258396,0.01038471,0.14905111,11286380721,49.476562
11286389560,-1.4404793,9.452846,0.26799613,11286389560,-0.27488935,0.012217305,0.16126843,11286389560,49.476562
11286398406,-1.4404793,9.393025,0.357727,11286398406,-0.28771752,0.01038471,0.17287487,11286398406,49.507812
11286407250,-1.3064811,9.241081,0.485743,11286407250,-0.2828306,0.009773844,0.18142697,11286407250,49.507812
11286416104,-1.174876,9.19801,0.58504516,11286416104,-0.27305678,0.01038471,0.18387043,11286416104,49.492188
11286424970,-1.1856437,9.036494,0.6149554,11286424970,-0.2510656,0.007330383,0.1826487,11286424970,49.492188
11286433815,-1.1581261,9.042477,0.74177504,11286433815,-0.22296582,0.002443461,0.1740966,11286433815,49.492188
11286442657,-1.1102697,9.047262,0.78364944,11286442657,-0.19608775,0.0018325958,0.16737708,11286442657,49.492188
11286451509,-1.0073783,9.120243,0.80518484,11286451509,-0.16554448,0.0012217305,0.15515977,11286451509,49.476562
11286460350,-1.0887343,9.079565,0.8865408,11286460350,-0.1337795,0.00061086525,0.14782938,11286460350,49.476562
11286469215,-0.9954142,9.230313,0.82672024,11286469215,-0.10751228,-0.010995574,0.13316862,11286469215,49.5
11286478185,-1.2550355,9.206385,0.8913264,11286478185,-0.07452556,-0.030543262,0.12644911,11286478185,49.5
11286486891,-1.1641082,9.30808,0.91525465,11286486891,-0.0580322,-0.04642576,0.11789699,11286486891,49.484375
11286495752,-1.1904292,9.282955,0.96550393,11286495752,-0.047647487,-0.06352998,0.119729586,11286495752,49.484375
11286504591,-1.0564312,9.352347,1.0983056,11286504591,-0.03481932,-0.07880162,0.11484267,11286504591,49.46875
11286513438,-1.0875379,9.178867,1.2311072,11286513438,-0.019547688,-0.092240654,0.11178834,11286513438,49.46875
11286522306,-0.97866446,9.200403,1.3076776,11286522306,0.002443461,-0.1020145,0.10262536,11286522306,49.484375
11286531145,-1.0025927,9.144172,1.2789637,11286531145,0.023823744,-0.106901415,0.09590584,11286531145,49.484375
11286539996,-0.94396853,9.276974,1.2933207,11286539996,0.05375614,-0.10873401,0.0842994,11286539996,49.492188
11286548839,-1.0923235,9.336794,1.2299109,11286548839,0.07941248,-0.112399206,0.07696902,11286548839,49.492188
11286557682,-1.1114662,9.360723,1.1952149,11286557682,0.10629055,-0.12339478,0.069027774,11286557682,49.484375
11286566543,-1.0815558,9.473185,1.180858,11286566543,0.12339478,-0.13988814,0.061086524,11286566543,49.484375
11286575381,-1.0707881,9.489935,1.1521441,11286575381,0.1441642,-0.15882497,0.054367006,11286575381,49.492188
11286584229,-0.9391829,9.62154,1.1318051,11286584229,0.16371189,-0.17715092,0.042760566,11286584229,49.492188
11286593077,-0.9774681,9.678967,1.0719845,11286593077,0.18142697,-0.19486602,0.031154128,11286593077,49.484375
11286601938,-1.0683953,9.649057,1.0887343,11286601938,0.20769419,-0.21624629,0.017104227,11286601938,49.484375
11286610779,-1.1832508,9.724431,1.0947163,11286610779,0.2302962,-0.24007004,0.01038471,11286610779,49.507812
11286619635,-1.0935199,9.753145,1.0779666,11286619635,0.26083946,-0.25961772,0.0030543262,11286619635,49.507812
11286628483,-1.1078769,9.747163,1.1150553,11286628483,0.29138273,-0.27550024,-0.0036651916,11286628483,49.5
11286637327,-1.0827522,9.735199,1.032503,11286637327,0.31887165,-0.2883284,-0.012217305,11286637327,49.5
11286646178,-1.1473584,9.795019,1.0372887,11286646178,0.34330627,-0.30115658,-0.020158553,11286646178,49.453125
11286655031,-1.2239288,9.8321085,0.9846465,11286655031,0.3622431,-0.31703907,-0.023823744,11286655031,49.453125
11286663872,-1.1844472,9.870394,0.92482597,11286663872,0.3885103,-0.3304781,-0.029932396,11286663872,49.46875
11286672727,-1.2071791,9.944571,0.85902333,11286672727,0.39950588,-0.33964106,-0.03176499,11286672727,49.46875
11286681573,-1.1856437,10.12164,0.80877405,11286681573,0.40500367,-0.3475823,-0.03726278,11286681573,49.492188
11286690424,-1.1760724,10.228121,0.81834537,11286690424,0.4007276,-0.35308012,-0.037873644,11286690424,49.492188
11286699266,-1.1102697,10.303494,0.8243274,11286699266,0.39400807,-0.35002577,-0.039095376,11286699266,49.460938
11286708112,-1.134198,10.305887,0.7692925,11286708112,0.38606682,-0.34025195,-0.040317107,11286708112,49.460938
11286716955,-1.1856437,10.382458,0.60059845,11286716955,0.37140608,-0.3286455,-0.04337143,11286716955,49.460938
11286725813,-1.2394822,10.426724,0.40438703,11286725813,0.35430184,-0.31703907,-0.042760566,11286725813,49.460938
11286734650,-1.2418749,10.563115,0.2847459,11286734650,0.33658674,-0.30115658,-0.03848451,11286734650,49.5
11286743511,-1.1916257,10.490134,0.13399807,11286743511,0.31520647,-0.28344148,-0.031154128,11286743511,49.5
11286752360,-1.2251252,10.377672,0.11246266,11286752360,0.2968805,-0.26083946,-0.025045475,11286752360,49.46875
11286761204,-1.253839,10.48176,0.16031912,11286761204,0.2779437,-0.24129178,-0.021380283,11286761204,49.46875
11286770057,-1.308874,10.403993,0.18783657,11286770057,0.26389378,-0.22785273,-0.013439035,11286770057,49.476562
11286778904,-1.2311072,10.4051895,0.25124636,11286778904,0.25900686,-0.22052236,-0.008552114,11286778904,49.476562
11286787748,-1.1988041,10.443475,0.21535404,11286787748,0.24984388,-0.21135938,-0.0061086523,11286787748,49.476562
11286796610,-1.2167503,10.427921,0.24047868,11286796610,0.24678956,-0.19853121,-0.005497787,11286796610,49.476562
11286805441,-1.1796615,10.493724,0.22372891,11286805441,0.23945917,-0.18325958,-0.004886922,11286805441,49.453125
11286814302,-1.1688938,10.49492,0.16151553,11286814302,0.23090707,-0.16493362,-0.004276057,11286814302,49.453125
11286823153,-1.1736795,10.470992,0.23928227,11286823153,0.22174409,-0.14782938,-0.0018325958,11286823153,49.453125
11286831994,-1.1557333,10.3645115,0.24646074,11286831994,0.20708331,-0.13255776,-0.00061086525,11286831994,49.453125
11286840844,-1.1892328,10.299905,0.27517462,11286840844,0.19425514,-0.115453534,0.002443461,11286840844,49.460938
11286849688,-1.160519,10.247263,0.25722843,11286849688,0.18081611,-0.096516706,0.004276057,11286849688,49.460938
11286858543,-1.268196,10.286744,0.25244278,11286858543,0.16676621,-0.07574729,0.01160644,11286858543,49.492188
11286867387,-1.2131611,10.286744,0.17108682,11286867387,0.15515977,-0.056199603,0.017715093,11286867387,49.492188
11286876244,-1.1820544,10.18505,0.03589234,11286876244,0.14905111,-0.03481932,0.021380283,11286876244,49.476562
11286885084,-1.1676974,10.1288185,-0.08255238,11286885084,0.14355333,-0.014049901,0.02076942,11286885084,49.476562
11286893936,-1.166501,10.106087,-0.16031912,11286893936,0.1337795,0.0067195175,0.019547688,11286893936,49.492188
11286902790,-1.1473584,9.921839,-0.19142582,11286902790,0.12644911,0.029321533,0.018936822,11286902790,49.492188
11286911627,-1.125823,9.827323,-0.124426775,11286911627,0.12034045,0.05009095,0.014660766,11286911627,49.492188
11286920475,-1.1593226,9.889536,-0.0023928226,11286920475,0.105068825,0.06841691,0.01038471,11286920475,49.492188
11286929334,-1.1784651,10.004392,0.22013968,11286929334,0.08979719,0.080634214,0.008552114,11286929334,49.445312
11286938172,-1.2287145,9.94816,0.44147578,11286938172,0.07086037,0.08552113,0.01160644,11286938172,49.445312
11286947015,-1.2526426,9.91825,0.6233303,11286947015,0.052534413,0.09162979,0.014660766,11286947015,49.484375
11286955886,-1.2849457,9.925428,0.6795616,11286955886,0.032986723,0.092240654,0.021380283,11286955886,49.484375
11286964736,-1.2574283,9.839287,0.63529444,11286964736,0.02076942,0.087964594,0.02565634,11286964736,49.492188
11286973567,-1.1413764,9.734002,0.51565325,11286973567,0.009773844,0.0842994,0.028099801,11286973567,49.492188
11286982433,-1.1174482,9.616755,0.44745782,11286982433,0.00061086525,0.0842994,0.025045475,11286982433,49.5
11286991267,-1.0576276,9.637094,0.44027936,11286991267,-0.014049901,0.08307768,0.018325957,11286991267,49.5
11287000113,-1.0899308,9.553345,0.4941179,11287000113,-0.023823744,0.07880162,0.01160644,11287000113,49.484375
11287008983,-1.0456635,9.58804,0.5706882,11287008983,-0.04337143,0.08124508,0.0030543262,11287008983,49.484375
11287017827,-1.0767702,9.611969,0.63529444,11287017827,-0.06352998,0.0842994,-0.0012217305,11287017827,49.460938
11287026665,-1.1150553,9.710074,0.8147561,11287026665,-0.07452556,0.08124508,-0.0036651916,11287026665,49.460938
11287035510,-1.2167503,9.663414,0.8662018,11287035510,-0.08674286,0.06963864,-0.004276057,11287035510,49.5
11287044354,-1.2287145,9.638289,0.8961121,11287044354,-0.09285152,0.06047566,-0.004886922,11287044354,49.5
11287053200,-1.2669996,9.59163,0.90089774,11287053200,-0.099571034,0.04886922,-0.0012217305,11287053200,49.46875
11287062064,-1.2502499,9.515059,0.8470592,11287062064,-0.103847094,0.03848451,0.0012217305,11287062064,49.46875
11287070920,-1.2610176,9.35833,0.81595254,11287070920,-0.09896017,0.026267206,0.002443461,11287070920,49.484375
11287079753,-1.2155539,9.303294,0.79441714,11287079753,-0.096516706,0.009773844,0.0018325958,11287079753,49.484375
11287088601,-1.1976078,9.24826,0.7322037,11287088601,-0.092240654,-0.007330383,0.00061086525,11287088601,49.46875
11287097445,-1.1760724,9.175279,0.72263247,11287097445,-0.08002335,-0.023823744,-0.0030543262,11287097445,49.46875
11287106312,-1.2143575,9.229117,0.6735796,11287106312,-0.06963864,-0.04153884,-0.007330383,11287106312,49.460938
11287115149,-1.2370893,9.284152,0.65324056,11287115149,-0.054367006,-0.055588737,-0.012217305,11287115149,49.460938
11287123993,-1.3435699,9.287741,0.7968099,11287123993,-0.040317107,-0.07086037,-0.014049901,11287123993,49.492188
11287132849,-1.4380864,9.211171,0.8662018,11287132849,-0.02443461,-0.092240654,-0.014049901,11287132849,49.492188
11287141687,-1.4560326,9.156136,1.0049855,11287141687,-0.0012217305,-0.118507855,-0.009162978,11287141687,49.445312
11287150551,-1.4249259,9.225528,1.0839486,11287150551,0.02076942,-0.14844026,-0.0036651916,11287150551,49.445312
11287159405,-1.4356936,9.160921,1.099502,11287159405,0.04153884,-0.18203785,0.002443461,11287159405,49.484375
11287168242,-1.3878372,9.0951185,1.1294123,11287168242,0.06536258,-0.21563543,0.005497787,11287168242,49.484375
11287177085,-1.3531412,9.147761,1.1246266,11287177085,0.080634214,-0.24801129,0.007941248,11287177085,49.507812
11287185930,-1.3172488,9.170493,1.1150553,11287185930,0.09773844,-0.27672195,0.01038471,11287185930,49.507812
11287194793,-1.3567305,9.183653,1.1294123,11287194793,0.11362094,-0.29993483,0.013439035,11287194793,49.5
11287203635,-1.3531412,9.245867,1.1222339,11287203635,0.124005646,-0.32498032,0.015271631,11287203635,49.5
11287212478,-1.3686945,9.378669,1.1126626,11287212478,0.1386664,-0.3481932,0.017715093,11287212478,49.453125
11287221344,-1.4009976,9.407382,1.0743774,11287221344,0.14721853,-0.3707952,0.023823744,11287221344,49.453125
11287230191,-1.4057833,9.355937,1.1294123,11287230191,0.15577064,-0.38973203,0.029321533,11287230191,49.46875
11287239031,-1.4321043,9.428918,1.1353943,11287239031,0.15515977,-0.4098906,0.037873644,11287239031,49.46875
11287247875,-1.3782659,9.394221,1.099502,11287247875,0.16310102,-0.42455134,0.04337143,11287247875,49.484375
11287256736,-1.3950156,9.304491,1.1306087,11287256736,0.16920967,-0.43676865,0.051923547,11287256736,49.484375
11287265566,-1.302892,9.312865,1.0336994,11287265566,0.1685988,-0.44715336,0.054367006,11287265566,49.535156
11287274428,-1.2418749,9.349955,0.95832545,11287274428,0.18020524,-0.45448375,0.05681047,11287274428,49.535156
11287283273,-1.2466606,9.482756,0.87338024,11287283273,0.18875736,-0.46303585,0.05681047,11287283273,49.48828
11287292135,-1.308874,9.68136,0.82313097,11287292135,0.2003638,-0.4728097,0.05375614,11287292135,49.48828
11287300973,-1.416551,9.757931,0.7692925,11287300973,0.21380283,-0.4868596,0.056199603,11287300973,49.484375
11287309833,-1.4476577,9.846465,0.7728817,11287309833,0.22357668,-0.50335294,0.06047566,11287309833,49.484375
11287318673,-1.477568,9.772287,0.75972116,11287318673,0.23640485,-0.5198463,0.07086037,11287318673,49.453125
11287327517,-1.410569,9.762716,0.7788638,11287327517,0.25167647,-0.53023106,0.07696902,11287327517,49.453125
11287336357,-1.3411771,9.785448,0.70348984,11287336357,0.26328292,-0.5412266,0.08368854,11287336357,49.5
11287345208,-1.3016955,9.716056,0.6233303,11287345208,0.27855456,-0.5479461,0.084910266,11287345208,49.5
11287354056,-1.2107682,9.723235,0.59940207,11287354056,0.28771752,-0.548557,0.081855945,11287354056,49.445312
11287362923,-1.1581261,9.614362,0.46061835,11287362923,0.29077184,-0.54428095,0.07941248,11287362923,49.445312
11287371756,-1.0719845,9.676575,0.4127619,11287371756,0.29443705,-0.5338962,0.07391469,11287371756,49.492188
11287380616,-1.0683953,9.859626,0.317049,11287380616,0.29077184,-0.5198463,0.06841691,11287380616,49.492188
11287389450,-1.1018949,10.027123,0.16271193,11287389450,0.28955013,-0.5027421,0.058643065,11287389450,49.460938
11287398315,-1.2586247,9.982856,0.07776674,11287398315,0.28588495,-0.48441613,0.0580322,11287398315,49.460938
11287407159,-1.2502499,9.992428,0.07537391,11287407159,0.27855456,-0.46792278,0.0580322,11287407159,49.460938
11287416009,-1.3136597,9.982856,0.07776674,11287416009,0.2687807,-0.45142943,0.06658431,11287416009,49.460938
11287424842,-1.2442678,9.877572,0.05383851,11287424842,0.25961772,-0.4288274,0.073303826,11287424842,49.484375
11287433706,-1.2251252,9.8632145,0.051445685,11287433706,0.25289822,-0.40500367,0.077579886,11287433706,49.484375
11287442539,-1.2658032,9.876375,0.0011964113,11287442539,0.24129178,-0.38606682,0.08246681,11287442539,49.460938
11287451407,-1.1030912,9.879965,-0.06819545,11287451407,0.22602014,-0.3652974,0.08002335,11287451407,49.460938
