quaternionTimestamp,quaternionX,quaternionY,quaternionZ,quaternionW,magneticFieldTimestamp,magneticFieldX,magneticFieldY,magneticFieldZ,accelerationTimestamp,accelerationX,accelerationY,accelerationZ,angularSpeedTimestamp,angularSpeedX,angularSpeedY,angularSpeedZ
11110318403,0.6930637,-0.22249761,-0.26938248,0.630548,11110318403,0.22348224,0.40326545,-0.24468912,11110318403,0.9021014,-9.791499,0.57050574,11110318403,0.00030432362,0.001138336,0.00016305014
11110327592,0.6930608,-0.22249563,-0.26937902,0.6305532,11110327592,0.21906671,0.40434295,-0.24466784,11110327592,0.92734855,-9.800507,0.5702621,11110327592,0.0010558385,0.001772509,-0.00016651163
11110337501,0.693063,-0.22248937,-0.2693753,0.6305546,11110337501,0.22129454,0.4053807,-0.24342814,11110337501,0.91051984,-9.799581,0.6062728,11110337501,-0.00024074595,0.0015466334,4.6183122e-05
11110347393,0.6930653,-0.22249243,-0.2693727,0.6305521,11110347393,0.21905637,0.4032922,-0.24706227,11110347393,0.89700043,-9.787428,0.58309484,11110347393,6.0454942e-05,-0.00017230678,-0.00011252216
11110357385,0.69306326,-0.2224949,-0.26937044,0.6305544,11110357385,0.2223769,0.40327224,-0.24586771,11110357385,0.9169151,-9.775076,0.5768856,11110357385,-0.00021356437,-0.00094084535,0.0009836466
11110367514,0.6930628,-0.22249189,-0.26937425,0.6305545,11110367514,0.2212544,0.40222767,-0.24592884,11110367514,0.956792,-9.785643,0.61847466,11110367514,-0.00016502012,-0.000111326575,0.00046111876
11110377514,0.693067,-0.2224959,-0.2693759,0.63054776,11110377514,0.2201766,0.40433657,-0.2458305,11110377514,0.919424,-9.766627,0.5794427,11110377514,0.0010936195,-0.00050761364,0.00049188384
11110387424,0.69306046,-0.22248952,-0.26938117,0.63055485,11110387424,0.22240902,0.40537477,-0.24693204,11110387424,0.9278264,-9.768056,0.5636959,11110387424,-7.8575686e-05,0.0005486952,-0.00035659084
11110397478,0.69306314,-0.22249177,-0.2693832,0.63055027,11110397478,0.21905637,0.4032922,-0.24706227,11110397478,0.9378477,-9.768614,0.6123236,11110397478,0.00057579204,-0.0012128232,-0.00019039633
11110407431,0.6930637,-0.22249278,-0.26938775,0.63054734,11110407431,0.22015366,0.4022349,-0.24944869,11110407431,0.9108508,-9.7818575,0.5897963,11110407431,-0.0011423919,-0.00062101893,-0.00036113686
11110417498,0.6930589,-0.22249962,-0.26939204,0.6305485,11110417498,0.21905865,0.40329245,-0.24823287,11110417498,0.91921455,-9.77882,0.5619508,11110417498,1.5820377e-05,-0.00065093674,0.0004737184
11110427398,0.69305336,-0.222504,-0.2693977,0.6305505,11110427398,0.22240672,0.40537456,-0.24576141,11110427398,0.9288916,-9.753986,0.5932041,11110427398,-0.00035834964,-0.00019032601,0.00046361866
11110437599,0.6930528,-0.22250547,-0.26940283,0.63054836,11110437599,0.2223643,0.4022213,-0.24709147,11110437599,0.91258204,-9.777334,0.5890958,11110437599,0.00038213003,-0.0011923639,0.00032428792
11110447722,0.6930521,-0.22250853,-0.2694034,0.63054776,11110447722,0.2234891,0.40326607,-0.24820103,11110447722,0.9045603,-9.791018,0.58636355,11110447722,-0.00022692513,-0.0016216096,-0.00070155994
11110457391,0.6930484,-0.22251152,-0.2694086,0.6305487,11110457391,0.2223345,0.400119,-0.24719778,11110457391,0.93899125,-9.77185,0.59952813,11110457391,-0.00019758288,-0.0016643917,0.00054249004
11110467496,0.69305056,-0.22251369,-0.2694094,0.63054526,11110467496,0.22234134,0.40011966,-0.25070968,11110467496,0.9007756,-9.784231,0.60548353,11110467496,-0.00047897175,-0.0012544561,-4.7807116e-06
11110477770,0.69304955,-0.22251639,-0.26941296,0.6305437,11110477770,0.22125897,0.40222812,-0.2482701,11110477770,0.9140132,-9.796252,0.57765263,11110477770,-3.909692e-06,-0.0009655878,-6.1190454e-05
11110487357,0.6930492,-0.22252028,-0.26941487,0.630542,11110487357,0.22121426,0.39907464,-0.2484295,11110487357,0.92818385,-9.800762,0.61133605,11110487357,0.0005348036,-0.0003356915,0.00017431914
11110497538,0.69305134,-0.22252108,-0.26941463,0.6305394,11110497538,0.22015366,0.4022349,-0.24944869,11110497538,0.90216,-9.800316,0.54582834,11110497538,0.0009429408,7.206667e-05,-0.00030876137
11110507363,0.6930505,-0.22252175,-0.26941186,0.63054127,11110507363,0.22127159,0.40327907,-0.2470463,11110507363,0.9074555,-9.803755,0.5828748,11110507363,0.00070290733,0.0004410548,-0.00028143497
11110517421,0.69305724,-0.22252439,-0.26941007,0.6305338,11110517421,0.21796137,0.40434974,-0.24584644,11110517421,0.9296537,-9.790404,0.62724245,11110517421,0.0013423823,-0.0006377157,-0.0004992143
11110527503,0.6930643,-0.22252136,-0.26940435,0.6305295,11110527503,0.22016399,0.40328562,-0.2470543,11110527503,0.9036307,-9.803606,0.5844951,11110527503,0.0006819647,-9.496324e-05,0.0007591734
11110537383,0.6930623,-0.22252394,-0.26940057,0.6305323,11110537383,0.22020641,0.4064389,-0.24572423,11110537383,0.90607995,-9.775057,0.63647056,11110537383,-0.0007807771,-0.0014132755,0.000385687
11110547506,0.69306564,-0.22251791,-0.26939386,0.63053375,11110547506,0.2212693,0.40327883,-0.2458757,11110547506,0.8957277,-9.76924,0.5947694,11110547506,0.0007701684,0.00025798287,-1.3525598e-05
11110557381,0.69306237,-0.22251481,-0.26938945,0.6305403,11110557381,0.21796137,0.40434974,-0.24584644,11110557381,0.9007162,-9.773423,0.5857009,11110557381,0.0003770329,0.00040197372,0.0006322344
11110567394,0.69305706,-0.2225194,-0.26939175,0.6305436,11110567394,0.21907814,0.40434405,-0.250521,11110567394,0.9061557,-9.754681,0.54921275,11110567394,-0.00015580002,0.00066815596,7.308344e-05
11110577615,0.6930554,-0.22252336,-0.26939553,0.63054234,11110577615,0.21796137,0.40434974,-0.24584644,11110577615,0.90904534,-9.7820425,0.6115565,11110577615,-0.00090423785,6.2619336e-05,-0.00025074743
11110587422,0.6930551,-0.22252898,-0.26939878,0.63053936,11110587422,0.2212693,0.40327883,-0.2458757,11110587422,0.912884,-9.756851,0.6240215,11110587422,0.0005655708,-0.0016070073,0.00096234004
11110597470,0.69306105,-0.22253205,-0.2693932,0.63053405,11110597470,0.22016399,0.40328562,-0.2470543,11110597470,0.90839475,-9.787783,0.6296092,11110597470,0.0003596153,0.0012256205,8.732057e-05
11110607440,0.69306564,-0.22253014,-0.2693972,0.630528,11110607440,0.21907586,0.4043438,-0.24935038,11110607440,0.9453673,-9.786396,0.584286,11110607440,0.0014981218,-0.000269535,-0.0005051985
11110617370,0.6930613,-0.22252883,-0.26940128,0.63053155,11110617370,0.22131401,0.4064323,-0.24571624,11110617370,0.9188875,-9.774027,0.5787861,11110617370,-0.0002884902,0.000121669844,-0.00020101713
11110627536,0.69305784,-0.2225337,-0.26940253,0.63053304,11110627536,0.21793386,0.40224767,-0.24712336,11110627536,0.8987137,-9.772609,0.59255046,11110627536,-5.5773184e-05,0.0005922429,-0.000103903236
11110637384,0.6930545,-0.22254276,-0.26940316,0.6305333,11110637384,0.2201789,0.4043368,-0.24700114,11110637384,0.8914201,-9.797271,0.59136236,11110637384,-0.00095555,-0.00079393014,-0.0001628201
11110647397,0.6930536,-0.2225408,-0.26939803,0.63053715,11110647397,0.22016399,0.40328562,-0.2470543,11110647397,0.8940049,-9.783795,0.59723663,11110647397,-0.00015868805,0.00089675933,-0.0005265854
11110657500,0.6930577,-0.2225356,-0.26939026,0.6305377,11110657500,0.22131632,0.40643254,-0.2468869,11110657500,0.89386976,-9.782178,0.5770795,11110657500,5.1152892e-05,0.0015068473,-0.0011197613
11110667386,0.6930549,-0.22253996,-0.26938748,0.6305405,11110667386,0.22018923,0.40538752,-0.24460673,11110667386,0.8949816,-9.797964,0.5546577,11110667386,0.0002889242,0.0004092632,0.0005762859
11110677668,0.6930564,-0.22254308,-0.26938692,0.6305379,11110677668,0.22020641,0.4064389,-0.24572423,11110677668,0.9168378,-9.772159,0.5761516,11110677668,0.00089657586,-0.0007081684,-2.6472379e-05
11110687357,0.69305336,-0.22254655,-0.2693832,0.6305416,11110687357,0.22016399,0.40328562,-0.2470543,11110687357,0.90161985,-9.8049135,0.5839793,11110687357,0.0009719068,0.00073699374,0.00038756593
11110697429,0.6930544,-0.22255,-0.26937625,0.63054234,11110697429,0.21906899,0.40434316,-0.24583848,11110697429,0.8885766,-9.801986,0.6155228,11110697429,-0.00013160054,0.0010498613,0.0008042576
11110707463,0.6930574,-0.22254746,-0.26936644,0.6305441,11110707463,0.21904375,0.4022413,-0.24828602,11110707463,0.9259587,-9.794197,0.5951109,11110707463,-0.00069040805,0.0012672124,0.0004118639
11110717427,0.693063,-0.22254284,-0.26936138,0.63054174,11110717427,0.21910568,0.4064461,-0.2492441,11110717427,0.9255748,-9.771452,0.55731535,11110717427,-0.0006756075,0.002251489,0.00016039913
11110727507,0.69306576,-0.22253433,-0.26935986,0.6305423,11110727507,0.22237463,0.40327203,-0.24469708,11110727507,0.92908955,-9.783331,0.6219331,11110727507,-0.0012931693,0.0034041116,-0.00018837047
11110737614,0.69306815,-0.2225302,-0.26935574,0.630543,11110737614,0.22014908,0.40223446,-0.2471074,11110737614,0.92876256,-9.774118,0.5869543,11110737614,0.00048737135,0.0017022863,0.00042886334
11110747403,0.6930692,-0.2225298,-0.26935372,0.6305428,11110747403,0.22018348,0.40433723,-0.2493424,11110747403,0.9084203,-9.768345,0.5889627,11110747403,-0.0004954664,0.0024445197,-0.00058033457
11110757500,0.6930712,-0.22253087,-0.26935604,0.6305393,11110757500,0.22015135,0.4022347,-0.24827804,11110757500,0.91195655,-9.756986,0.59585595,11110757500,-0.0003619073,-0.00027019996,0.00038298126
11110767396,0.69307303,-0.22253405,-0.26935443,0.6305368,11110767396,0.22127844,0.40327972,-0.2505582,11110767396,0.90915483,-9.764776,0.5939534,11110767396,-5.2100047e-05,0.0013215682,0.00056665996
11110777524,0.6930717,-0.22253522,-0.2693543,0.6305379,11110777524,0.2201766,0.40433657,-0.2458305,11110777524,0.89846027,-9.771227,0.5941944,11110777524,-9.5397234e-05,0.001216339,0.00035522878
11110787532,0.6930704,-0.2225328,-0.2693517,0.63054127,11110787532,0.22240672,0.40537456,-0.24576141,11110787532,0.93117654,-9.7377405,0.5807892,11110787532,-0.0010615252,0.00087933894,0.00020974223
11110797360,0.6930757,-0.22253346,-0.26934636,0.6305374,11110797360,0.22015135,0.4022347,-0.24827804,11110797360,0.9045991,-9.789124,0.59698313,11110797360,0.00081965607,0.0003381446,-0.00027152873
11110807541,0.69307655,-0.22253595,-0.26934823,0.6305349,11110807541,0.2223987,0.40432405,-0.24932647,11110807541,0.89479494,-9.794418,0.5697698,11110807541,-0.0007248968,-0.00019907672,-0.0006071115
11110817349,0.6930753,-0.22253962,-0.26934376,0.6305368,11110817349,0.22014908,0.40223446,-0.2471074,11110817349,0.90233034,-9.799827,0.57929313,11110817349,0.00043831207,0.0011621779,0.00053695287
11110827421,0.69307005,-0.22254427,-0.2693415,0.630542,11110827421,0.22127387,0.40327924,-0.24821696,11110827421,0.90485257,-9.797399,0.60021365,11110827421,-0.00064105075,0.0010324931,0.00040680752
11110837492,0.6930767,-0.22254203,-0.2693403,0.6305359,11110837492,0.21907932,0.40539387,-0.24344407,11110837492,0.9170013,-9.785719,0.5972825,11110837492,0.0012175655,0.0010041911,-0.00019069598
11110847394,0.69307977,-0.22254002,-0.26933503,0.6305356,11110847394,0.21688357,0.40645868,-0.2457481,11110847394,0.917818,-9.798211,0.60185754,11110847394,0.00060348306,-0.0005465271,-0.00034578587
11110857395,0.69307894,-0.22254057,-0.26932985,0.63053846,11110857395,0.22351205,0.40536776,-0.24458282,11110857395,0.8990449,-9.770261,0.5830811,11110857395,-0.000673892,-0.0013346663,0.0004000801
11110867617,0.69307774,-0.22254232,-0.26932588,0.6305408,11110867617,0.22128879,0.4043304,-0.2481638,11110867617,0.8933942,-9.790258,0.5646805,11110867617,0.00036653318,-0.0003361348,0.000378971
11110877433,0.69307095,-0.22254243,-0.26932395,0.6305491,11110877433,0.22237921,0.40327248,-0.24703833,11110877433,0.90945995,-9.786736,0.59844196,11110877433,0.00069719367,-0.0005213106,0.00044313143
11110887471,0.6930717,-0.22253741,-0.2693208,0.6305514,11110887471,0.22016625,0.40328586,-0.2482249,11110887471,0.9233011,-9.771501,0.58834976,11110887471,-0.0007386571,0.0007326845,-4.1324878e-05
11110897436,0.69307077,-0.22253756,-0.26932117,0.6305522,11110897436,0.21903917,0.40224087,-0.24594477,11110897436,0.91208315,-9.769844,0.57212174,11110897436,-0.00031015743,0.00021542236,0.0011178406
11110907357,0.6930679,-0.22253963,-0.26932478,0.6305531,11110907357,0.22015366,0.4022349,-0.24944869,11110907357,0.91686285,-9.803821,0.5822705,11110907357,0.00017882325,-0.00074359775,0.00074985414
11110917534,0.6930711,-0.22253521,-0.26933265,0.6305477,11110917534,0.22128879,0.4043304,-0.2481638,11110917534,0.93441564,-9.807658,0.5897201,11110917534,-0.0008697603,-0.00083285756,-0.0006221556
11110927360,0.6930724,-0.2225344,-0.26933345,0.6305463,11110927360,0.22128421,0.40433,-0.24582256,11110927360,0.9160917,-9.786321,0.5940268,11110927360,0.0009976318,-0.00013886113,0.00018620328
11110937741,0.69307166,-0.22253299,-0.26933473,0.63054705,11110937741,0.22345473,0.40116337,-0.24596605,11110937741,0.9231112,-9.784055,0.57812274,11110937741,0.00016819034,-0.00087369327,-6.186706e-05
11110947612,0.69307,-0.22252645,-0.26933405,0.63055146,11110947612,0.22127616,0.40327948,-0.24938759,11110947612,0.904294,-9.761885,0.54304034,11110947612,0.0009857593,5.8026053e-05,0.0005608746
11110957402,0.69307363,-0.22252502,-0.26933202,0.6305489,11110957402,0.2235212,0.4053686,-0.24926536,11110957402,0.910547,-9.775005,0.6091959,11110957402,5.7194382e-05,0.0005083084,0.00020631775
11110967648,0.6930802,-0.22252436,-0.26933298,0.6305415,11110967648,0.22234713,0.40116996,-0.245974,11110967648,0.928455,-9.775415,0.6003205,11110967648,-0.00034916028,0.00016296282,-1.0994263e-06
11110977598,0.6930807,-0.22252162,-0.26933742,0.63054,11110977598,0.2212693,0.40327883,-0.2458757,11110977598,0.9063223,-9.775377,0.59594184,11110977598,0.0003687907,-0.0007879492,2.8938288e-05
11110987426,0.69307977,-0.22252613,-0.2693413,0.6305378,11110987426,0.22015135,0.4022347,-0.24827804,11110987426,0.9139594,-9.76985,0.57448834,11110987426,0.0004646452,-0.001365032,0.00039837812
11110997472,0.69307226,-0.22252999,-0.26935184,0.6305402,11110997472,0.22346963,0.4022145,-0.24591288,11110997472,0.9037346,-9.781176,0.56118214,11110997472,0.0007584691,-0.0011318447,-0.0006209784
11111007438,0.69306535,-0.22254036,-0.26935032,0.6305447,11111007438,0.22018348,0.40433723,-0.2493424,11111007438,0.9109739,-9.764839,0.5687491,11111007438,0.00056546275,0.00048689544,0.0008768637
11111017462,0.6930604,-0.22255033,-0.26934713,0.630548,11111017462,0.22240902,0.40537477,-0.24693204,11111017462,0.9146327,-9.791375,0.58454263,11111017462,2.0148233e-05,-8.52393e-05,0.00039420254
11111027422,0.6930655,-0.2225501,-0.26934668,0.63054276,11111027422,0.22017203,0.4043361,-0.24348925,11111027422,0.92084575,-9.774712,0.5882342,11111027422,0.0005895663,-0.0003877338,5.5331737e-05
11111037348,0.69306487,-0.22255358,-0.2693436,0.6305434,11111037348,0.2212693,0.40327883,-0.2458757,11111037348,0.90736884,-9.79899,0.593316,11111037348,-0.0009093303,3.725104e-05,-0.00022896472
11111047542,0.69306016,-0.22256133,-0.26934195,0.63054657,11111047542,0.22132891,0.40748346,-0.24566314,11111047542,0.9200099,-9.807918,0.5683456,11111047542,0.0004643472,-0.0014153346,0.0009396074
11111057389,0.69306195,-0.2225637,-0.2693483,0.6305411,11111057389,0.22018348,0.40433723,-0.2493424,11111057389,0.9180464,-9.769112,0.61516094,11111057389,0.00051286165,-0.0009798743,0.000215824
11111067612,0.69306517,-0.22257425,-0.26935637,0.6305304,11111067612,0.22016625,0.40328586,-0.2482249,11111067612,0.908055,-9.777924,0.5986003,11111067612,-0.00040306803,-0.0007393779,-0.0006458976
11111077440,0.69306433,-0.22258326,-0.26935726,0.6305277,11111077440,0.21574613,0.40436292,-0.24586236,11111077440,0.913192,-9.791973,0.58490247,11111077440,0.0006275112,5.8915466e-05,0.00051062345
11111087355,0.6930667,-0.22258522,-0.2693573,0.63052446,11111087355,0.22128879,0.4043304,-0.2481638,11111087355,0.8953114,-9.752578,0.6056111,11111087355,-0.0005805092,0.0005241558,-0.00077890814
11111097553,0.6930689,-0.2225854,-0.26935327,0.63052356,11111097553,0.22015135,0.4022347,-0.24827804,11111097553,0.91983366,-9.770219,0.62916255,11111097553,0.00096707325,-0.00036557205,0.0005245602
11111107355,0.6930739,-0.22258274,-0.2693466,0.63052195,11111107355,0.22019838,0.40538839,-0.24928923,11111107355,0.9207434,-9.782932,0.5697856,11111107355,0.0008033775,0.002020061,7.857755e-05
11111117439,0.6930775,-0.22258963,-0.2693414,0.6305177,11111117439,0.22128421,0.40433,-0.24582256,11111117439,0.9094976,-9.742573,0.62002313,11111117439,9.556394e-05,0.0011486579,0.00096815545
11111127482,0.6930775,-0.22257946,-0.26934147,0.63052136,11111127482,0.21906671,0.40434295,-0.24466784,11111127482,0.91837466,-9.7770405,0.582216,11111127482,-0.00038277823,0.0013756026,-0.0006100957
11111137429,0.69308126,-0.22257754,-0.26933768,0.6305195,11111137429,0.21797627,0.4054009,-0.2457933,11111137429,0.9184161,-9.768342,0.59958345,11111137429,0.00051647425,0.0011907024,0.00022860104
11111147502,0.6930875,-0.22256726,-0.26933786,0.63051623,11111147502,0.21907356,0.40434358,-0.24817973,11111147502,0.9268476,-9.776082,0.5884938,11111147502,-0.00081896037,0.00060431194,-0.0011396839
11111157395,0.69309217,-0.2225576,-0.26933467,0.6305158,11111157395,0.22019607,0.40538818,-0.24811862,11111157395,0.9276008,-9.768343,0.601492,11111157395,0.00019789953,0.0010742536,-0.0002638742
11111167540,0.69310075,-0.22255011,-0.2693297,0.6305112,11111167540,0.22131632,0.40643254,-0.2468869,11111167540,0.9218823,-9.739917,0.6165376,11111167540,-0.0003592847,0.0020340392,-0.0007935271
11111177488,0.6931053,-0.22254571,-0.26932624,0.6305092,11111177488,0.2212544,0.40222767,-0.24592884,11111177488,0.91979975,-9.779486,0.5645622,11111177488,8.45734e-05,0.0015071714,-0.00031852862
11111187433,0.6931023,-0.22253837,-0.26932698,0.63051486,11111187433,0.21907356,0.40434358,-0.24817973,11111187433,0.93195486,-9.79679,0.5602704,11111187433,-0.00033292267,0.0013009626,-0.0010630519
11111197358,0.69310355,-0.22252886,-0.2693231,0.6305184,11111197358,0.22127159,0.40327907,-0.2470463,11111197358,0.92763156,-9.787094,0.56446606,11111197358,-0.0001473464,0.0017712796,0.00011264463
11111207539,0.6930981,-0.22252122,-0.26932222,0.63052744,11111207539,0.22129911,0.40538117,-0.24576938,11111207539,0.8923518,-9.788883,0.56037045,11111207539,-0.00108275,0.0009166021,5.209027e-05
11111217355,0.6930974,-0.22252063,-0.26931983,0.63052946,11111217355,0.22238147,0.40327266,-0.24820897,11111217355,0.9270731,-9.819225,0.5586798,11111217355,0.00046830252,0.00020267442,0.00033622002
11111227540,0.693096,-0.22251795,-0.26932275,0.6305307,11111227540,0.2201915,0.40538776,-0.24577734,11111227540,0.92144436,-9.798041,0.5718043,11111227540,-0.00023307372,0.0005851006,0.000354236
11111237572,0.6930948,-0.22251512,-0.2693238,0.6305326,11111237572,0.22128421,0.40433,-0.24582256,11111237572,0.9128907,-9.8166,0.58399534,11111237572,-0.00031462125,0.0001036739,-0.0009818944
11111247435,0.6930979,-0.22251298,-0.26931968,0.6305318,11111247435,0.21905407,0.403292,-0.24589163,11111247435,0.9306377,-9.787081,0.60106564,11111247435,-0.0005025733,0.001075442,-0.00048705703
11111257492,0.6931013,-0.22250538,-0.2693229,0.6305293,11111257492,0.22015135,0.4022347,-0.24827804,11111257492,0.92954326,-9.756754,0.54843867,11111257492,0.00034510344,0.00062693655,-0.0005194119
11111267503,0.69310236,-0.22250423,-0.2693201,0.63052976,11111267503,0.22128879,0.4043304,-0.2481638,11111267503,0.8865581,-9.800421,0.58002484,11111267503,0.00096789096,0.00032297615,-0.0003766911
11111277553,0.6931089,-0.2224981,-0.269315,0.6305268,11111277553,0.2201766,0.40433657,-0.2458305,11111277553,0.929591,-9.747355,0.56624335,11111277553,-1.9236468e-05,-0.00028150994,3.266381e-05
11111287359,0.69311285,-0.22249839,-0.26931155,0.630524,11111287359,0.22128652,0.40433022,-0.2469932,11111287359,0.9012817,-9.777447,0.600526,11111287359,0.002373226,0.00025816727,-0.0007231722
11111297427,0.6931167,-0.22249448,-0.26930872,0.63052225,11111297427,0.21796824,0.4043504,-0.24935833,11111297427,0.9237779,-9.764536,0.60951996,11111297427,-0.00023544487,0.0003660377,-0.000729037
11111307460,0.6931189,-0.22249521,-0.26930436,0.6305215,11111307460,0.21796367,0.40434998,-0.24701707,11111307460,0.89700407,-9.7744055,0.59758526,11111307460,-0.00021313131,-0.00011280924,0.0007207629
11111317421,0.69311816,-0.22249344,-0.26930526,0.6305225,11111317421,0.22021903,0.40748984,-0.24450044,11111317421,0.9090589,-9.774537,0.59463537,11111317421,9.864755e-05,0.00026930403,0.0008207583
11111327354,0.6931217,-0.2224892,-0.26930264,0.63052124,11111327354,0.21909879,0.40644547,-0.2457322,11111327354,0.9344377,-9.795955,0.5851354,11111327354,0.00028745085,-0.0010685083,-0.0005984341
11111337524,0.6931241,-0.22248065,-0.26930308,0.6305215,11111337524,0.2223964,0.40432385,-0.24815583,11111337524,0.92267954,-9.778639,0.5558409,11111337524,0.0006396407,-0.000611837,-0.00010870816
11111347365,0.693124,-0.22247618,-0.26930317,0.630523,11111347365,0.2191286,0.4085478,-0.2456259,11111347365,0.91836023,-9.757879,0.5606734,11111347365,0.00026032515,-0.000287191,1.6306294e-05
11111357531,0.6931192,-0.2224797,-0.26930732,0.6305253,11111357531,0.21910337,0.40644592,-0.24807346,11111357531,0.91375834,-9.796338,0.56341773,11111357531,0.00077669695,-0.0011301963,-0.0010465347
11111367547,0.6931184,-0.22248605,-0.2693073,0.630524,11111367547,0.2201789,0.4043368,-0.24700114,11111367547,0.9389546,-9.786927,0.5760035,11111367547,0.0012773648,-0.0017230846,0.0011225259
11111377374,0.6931122,-0.22248444,-0.2693088,0.6305307,11111377374,0.22131401,0.4064323,-0.24571624,11111377374,0.8990799,-9.807924,0.563023,11111377374,5.1211566e-05,-0.0012693256,7.475028e-05
11111387536,0.6931085,-0.22249386,-0.2693101,0.6305309,11111387536,0.22234713,0.40116996,-0.245974,11111387536,0.90918237,-9.792089,0.58531344,11111387536,0.0005437229,-0.0008284766,0.00024811435
11111397364,0.6931056,-0.22250023,-0.26932025,0.6305275,11111397364,0.21910337,0.40644592,-0.24807346,11111397364,0.8998325,-9.773426,0.5794696,11111397364,0.0004660003,-0.001486348,-0.00045186537
11111407542,0.6931041,-0.2225088,-0.26932582,0.63052374,11111407542,0.22238147,0.40327266,-0.24820897,11111407542,0.91416657,-9.780922,0.6061821,11111407542,-4.1000545e-05,-0.0019635223,-4.733447e-05
11111417354,0.69309926,-0.22251213,-0.2693314,0.6305255,11111417354,0.2191011,0.40644568,-0.24690282,11111417354,0.9299117,-9.79014,0.5734052,11111417354,0.00038674287,-0.0014859671,0.0012772232
11111427430,0.69310266,-0.22251095,-0.26933157,0.6305221,11111427430,0.22018118,0.404337,-0.24817176,11111427430,0.91148615,-9.78763,0.6184041,11111427430,-9.6431e-05,-0.00064013153,0.0002030353
11111437679,0.69310164,-0.2225133,-0.26933905,0.6305192,11111437679,0.22124638,0.40117717,-0.24949384,11111437679,0.9380775,-9.767107,0.6219505,11111437679,-0.00044592842,-0.0021415763,-0.0009843415
11111447651,0.6931073,-0.2225188,-0.26934096,0.63051033,11111447651,0.22013418,0.40118334,-0.24716054,11111447651,0.8984023,-9.771808,0.5897006,11111447651,0.00057315826,0.0004647039,-0.00054302975
11111457353,0.6931041,-0.22252475,-0.26934755,0.6305089,11111457353,0.21903917,0.40224087,-0.24594477,11111457353,0.9015516,-9.773131,0.58536774,11111457353,0.00012701657,-0.0017014667,7.720012e-05
11111467636,0.69310075,-0.22253671,-0.2693499,0.63050723,11111467636,0.22236888,0.4022217,-0.24943276,11111467636,0.8928092,-9.76755,0.56469107,11111467636,0.0002868343,-0.00064982846,0.0007702047
11111477660,0.693099,-0.22253945,-0.26935273,0.63050693,11111477660,0.2223964,0.40432385,-0.24815583,11111477660,0.91847783,-9.754735,0.59316576,11111477660,-0.00058429874,-0.00022612978,-0.00047986605
11111487470,0.6931006,-0.22253785,-0.26935184,0.6305063,11111487470,0.22013646,0.40118352,-0.24833117,11111487470,0.90295094,-9.775189,0.5913214,11111487470,-0.0007548798,-1.9354746e-05,-0.00028236234
11111497429,0.69310516,-0.22253668,-0.2693546,0.6305005,11111497429,0.22235855,0.40117106,-0.25182715,11111497429,0.93246555,-9.756322,0.5936267,11111497429,0.00046320166,0.000653903,-0.00037360447
11111507354,0.6931046,-0.22253777,-0.26936397,0.6304967,11111507354,0.22238147,0.40327266,-0.24820897,11111507354,0.91005856,-9.770438,0.5753261,11111507354,0.00027061068,-9.8650344e-05,0.0005245912
11111517536,0.6931045,-0.22254092,-0.26935726,0.6304985,11111517536,0.2212693,0.40327883,-0.2458757,11111517536,0.9108766,-9.763283,0.6104751,11111517536,-0.0004469175,0.0008626003,0.00066220853
11111527357,0.69310653,-0.22253987,-0.26935858,0.6304961,11111527357,0.22016625,0.40328586,-0.2482249,11111527357,0.9187305,-9.7881,0.59175915,11111527357,-0.00014170352,0.000116290525,-0.00054274104
11111537528,0.6931114,-0.22254448,-0.26934877,0.6304932,11111537528,0.21796824,0.4043504,-0.24935833,11111537528,0.90825516,-9.785362,0.5995753,11111537528,-0.00033578556,0.00066218805,0.0017588858
11111547357,0.69311076,-0.2225402,-0.2693531,0.63049364,11111547357,0.22019607,0.40538818,-0.24811862,11111547357,0.91820025,-9.78314,0.57868004,11111547357,0.0005140798,0.0003515212,-0.0005591498
11111557420,0.6931127,-0.22254376,-0.269347,0.630493,11111557420,0.2212911,0.40433064,-0.24933445,11111557420,0.8708218,-9.762478,0.6074322,11111557420,-0.000534649,0.0010753563,-0.00061620306
11111567647,0.6931099,-0.22253977,-0.2693446,0.63049847,11111567647,0.22018118,0.404337,-0.24817176,11111567647,0.91437066,-9.784225,0.589022,11111567647,0.00026339386,0.00060945656,-0.0006867943
11111577361,0.69310987,-0.22253759,-0.2693343,0.6305036,11111577361,0.22016856,0.40328607,-0.24939553,11111577361,0.91596353,-9.804815,0.60176826,11111577361,-0.0011918582,0.001683116,-9.6638454e-05
11111587429,0.69310814,-0.22253421,-0.2693268,0.6305099,11111587429,0.2223964,0.40432385,-0.24815583,11111587429,0.9046457,-9.777931,0.58463085,11111587429,-0.0018289424,0.0021943748,0.0002177488
11111597476,0.6931121,-0.22253017,-0.26931974,0.63051,11111597476,0.2223769,0.40327224,-0.24586771,11111597476,0.91248864,-9.776082,0.5972148,11111597476,-0.00034052972,0.0009799646,0.0008768067
11111607431,0.6931161,-0.22252482,-0.26931125,0.63051105,11111607431,0.22127616,0.40327948,-0.24938759,11111607431,0.90170103,-9.765359,0.6008804,11111607431,-0.00053980295,0.00086106174,0.00049294136
11111617487,0.69312537,-0.22252364,-0.26929787,0.63050705,11111617487,0.22128195,0.40432978,-0.24465191,11111617487,0.9006901,-9.802929,0.569171,11111617487,0.00017834734,6.0584396e-05,0.0002715753
11111627437,0.6931238,-0.22251506,-0.26929325,0.6305137,11111627437,0.2190816,0.4053941,-0.2446147,11111627437,0.92952955,-9.8050585,0.58217436,11111627437,-0.0007867692,-6.945897e-05,0.00043816445
11111637359,0.69312567,-0.2225081,-0.2692923,0.6305147,11111637359,0.2223769,0.40327224,-0.24586771,11111637359,0.9106058,-9.776745,0.57252645,11111637359,-9.8826364e-05,-8.3398074e-05,0.00015294389
11111647553,0.6931283,-0.2225021,-0.2692885,0.63051546,11111647553,0.22019956,0.4064382,-0.24221234,11111647553,0.9279493,-9.748471,0.5932572,11111647553,0.0002811635,0.0004574703,9.7738346e-05
11111657360,0.6931325,-0.22249533,-0.26928687,0.63051397,11111657360,0.2201915,0.40538776,-0.24577734,11111657360,0.9081672,-9.777811,0.58040565,11111657360,-0.00070926454,0.00047185645,-4.5299763e-05
11111667553,0.6931245,-0.22249414,-0.26928693,0.63052315,11111667553,0.22014908,0.40223446,-0.2471074,11111667553,0.9225637,-9.755325,0.57454234,11111667553,-0.000294446,-0.00043831114,0.00066216197
11111677564,0.69312674,-0.22248101,-0.2692923,0.630523,11111677564,0.22349717,0.4043166,-0.24463598,11111677564,0.92653126,-9.75506,0.56930035,11111677564,-0.0009248592,-0.00016950164,-0.00038134214
11111687367,0.6931258,-0.22246675,-0.26928934,0.6305303,11111687367,0.22127387,0.40327924,-0.24821696,11111687367,0.9249446,-9.752693,0.60718566,11111687367,-0.00047018286,7.7039935e-05,0.00028874516
11111697559,0.6931287,-0.22246106,-0.26928332,0.63053167,11111697559,0.22126126,0.4022283,-0.24944073,11111697559,0.9167088,-9.779628,0.55591,11111697559,0.00025257096,-0.00029138755,-0.00056208344
11111707363,0.6931278,-0.22245732,-0.26928172,0.63053465,11111707363,0.22240902,0.40537477,-0.24693204,11111707363,0.9050163,-9.762049,0.56039155,11111707363,0.00046098512,0.0010516932,-0.0005607514
11111717426,0.6931244,-0.22245845,-0.2692775,0.63053983,11111717426,0.21908389,0.40539432,-0.24578531,11111717426,0.89775085,-9.793109,0.5743662,11111717426,0.00017488748,9.14596e-05,-0.0004515897
11111727484,0.69311917,-0.2224558,-0.26927778,0.63054633,11111727484,0.22020641,0.4064389,-0.24572423,11111727484,0.92407525,-9.783692,0.54619473,11111727484,-0.0003880486,0.0010154666,0.00012399908
11111737644,0.693114,-0.22245365,-0.26928052,0.63055164,11111737644,0.2223517,0.40117037,-0.24831527,11111737644,0.9144633,-9.810258,0.57278335,11111737644,-0.00025632232,0.00013811141,-0.0005521937
11111747478,0.6931077,-0.22245052,-0.2692817,0.6305592,11111747478,0.22122917,0.40012577,-0.24837637,11111747478,0.90660703,-9.80742,0.564682,11111747478,-0.00041929912,-0.00015858375,0.0001827383
11111757431,0.69310415,-0.22244789,-0.26927993,0.6305648,11111757431,0.22351433,0.40536797,-0.24575347,11111757431,0.9313005,-9.772297,0.59208494,11111757431,1.8917955e-05,0.0001768386,0.00049647014
11111767516,0.6931041,-0.22245072,-0.2692716,0.63056743,11111767516,0.22239412,0.4043236,-0.24698521,11111767516,0.90608406,-9.809763,0.6073849,11111767516,-0.00041318778,0.00039838627,0.00050005945
11111777521,0.6931055,-0.22245319,-0.26926655,0.6305672,11111777521,0.2201938,0.40538794,-0.24694797,11111777521,0.9204488,-9.79077,0.60287434,11111777521,0.00043073483,-0.0002799062,0.0007781184
11111787434,0.6931056,-0.22245188,-0.26926282,0.6305691,11111787434,0.22131632,0.40643254,-0.2468869,11111787434,0.90649575,-9.786331,0.6033294,11111787434,0.0005260529,2.3982488e-05,6.247661e-05
11111797375,0.6931078,-0.22245082,-0.26926,0.6305684,11111797375,0.22128652,0.40433022,-0.2469932,11111797375,0.9374065,-9.755075,0.6031437,11111797375,-0.00064523146,0.00046041328,0.0003039285
11111807552,0.6931065,-0.22244881,-0.26926816,0.63056695,11111807552,0.22127387,0.40327924,-0.24821696,11111807552,0.9255744,-9.770559,0.5704558,11111807552,-0.00018570386,0.00071351975,-0.0011437566
11111817355,0.69310534,-0.22244944,-0.26927462,0.6305652,11111817355,0.21907128,0.4043434,-0.24700913,11111817355,0.9213351,-9.776733,0.58941007,11111817355,0.00033549313,-0.00015931111,2.958905e-05
11111827539,0.69310296,-0.22245617,-0.2692782,0.630564,11111827539,0.21685375,0.40435633,-0.24585438,11111827539,0.8960483,-9.762468,0.5703871,11111827539,0.0004579965,-0.0009760186,0.0001356923
11111837369,0.69310004,-0.22245482,-0.26928136,0.6305663,11111837369,0.21797399,0.4054007,-0.24462265,11111837369,0.92513007,-9.766743,0.58350277,11111837369,-0.00094765425,0.0002750298,0.00078740343
11111847442,0.6931025,-0.22245598,-0.26928258,0.6305626,11111847442,0.22131401,0.4064323,-0.24571624,11111847442,0.9055904,-9.747716,0.56351066,11111847442,0.0009736186,-0.0010682223,-5.4679113e-05
11111857468,0.6931003,-0.22245744,-0.26928407,0.630564,11111857468,0.22128421,0.40433,-0.24582256,11111857468,0.92724437,-9.760796,0.5733205,11111857468,6.652251e-05,-0.0016861241,0.0006864192
11111867556,0.6931004,-0.22245573,-0.26928747,0.6305629,11111867556,0.21800381,0.407503,-0.24451637,11111867556,0.930273,-9.77398,0.5757135,11111867556,0.000197649,-0.0010572476,3.9181672e-05
11111877560,0.6930966,-0.22245455,-0.26929107,0.63056594,11111877560,0.22018576,0.40433747,-0.25051305,11111877560,0.9162351,-9.779126,0.58561057,11111877560,7.280707e-05,-0.000992734,0.00015842542
11111887359,0.69309664,-0.22245415,-0.2692919,0.63056564,11111887359,0.22016625,0.40328586,-0.2482249,11111887359,0.8719642,-9.794465,0.6131096,11111887359,0.0001873197,-0.00014313869,-0.00066633243
11111897431,0.6931022,-0.22245635,-0.269293,0.6305583,11111897431,0.22016399,0.40328562,-0.2470543,11111897431,0.89187807,-9.777323,0.62225294,11111897431,0.0006006211,-0.0010099066,-0.0011897527
11111907469,0.6931048,-0.22246557,-0.26929155,0.6305528,11111907469,0.223504,0.40431726,-0.24814788,11111907469,0.9122139,-9.77929,0.6026022,11111907469,0.0015422776,-0.0009230478,-1.8304912e-05
11111917428,0.693104,-0.2224693,-0.2692923,0.6305521,11111917428,0.22134154,0.4085344,-0.24443936,11111917428,0.89170194,-9.785901,0.6003141,11111917428,-0.00033773668,-0.0004597539,-0.00012711319
11111927363,0.6931041,-0.22247033,-0.26928496,0.63055485,11111927363,0.22235973,0.40222088,-0.24475022,11111927363,0.91646755,-9.780784,0.58497787,11111927363,-0.0003122883,0.000156492,0.00082197576
11111937746,0.6931034,-0.22246826,-0.2692783,0.6305592,11111937746,0.22236659,0.40222153,-0.2482621,11111937746,0.9086206,-9.81458,0.5844328,11111937746,4.190579e-05,0.00022518635,-0.00037044007
11111947572,0.6931037,-0.22246923,-0.26927826,0.6305585,11111947572,0.22235398,0.40117058,-0.2494859,11111947572,0.91430515,-9.784009,0.60461956,11111947572,0.00013109203,2.9753894e-05,-0.0003047802
11111957537,0.6931027,-0.22247466,-0.26927865,0.63055754,11111957537,0.22236888,0.4022217,-0.24943276,11111957537,0.9142337,-9.787203,0.587347,11111957537,-0.0002132915,-0.000805147,-0.00029276498
11111967506,0.6931047,-0.22247678,-0.2692765,0.63055545,11111967506,0.22016399,0.40328562,-0.2470543,11111967506,0.918776,-9.779954,0.5754354,11111967506,0.0015495569,0.00010433048,-0.00044713845
11111977626,0.6931041,-0.22247612,-0.26928082,0.63055456,11111977626,0.21903917,0.40224087,-0.24594477,11111977626,0.9100175,-9.773887,0.5776293,11111977626,-0.00032578502,-2.5622547e-05,-6.036507e-05
11111987540,0.6931068,-0.22247866,-0.2692776,0.63055205,11111987540,0.22346388,0.40116426,-0.2506486,11111987540,0.913872,-9.767562,0.62134445,11111987540,0.00033542328,-1.599919e-05,0.00064423634
11111997365,0.69310945,-0.2224821,-0.2692815,0.63054615,11111997365,0.22237116,0.402222,-0.25060338,11111997365,0.92931396,-9.765066,0.6147613,11111997365,2.9694289e-05,-0.00041695219,-0.0011180757
11112007433,0.6931161,-0.22248818,-0.26927945,0.6305376,11112007433,0.2234891,0.40326607,-0.24820103,11112007433,0.9292823,-9.772682,0.59910035,11112007433,0.00064175203,-0.00030546077,0.0004283255
11112017457,0.69312173,-0.22247982,-0.2692741,0.63053674,11112017457,0.22130369,0.4053816,-0.24811067,11112017457,0.92968285,-9.785535,0.6041514,11112017457,-0.0006979713,0.0006956784,0.0007048433
11112027420,0.69312847,-0.22247376,-0.2692748,0.6305311,11112027420,0.22127159,0.40327907,-0.2470463,11112027420,0.90357864,-9.772441,0.6283671,11112027420,-0.000120494515,0.00079408195,-0.0009178994
11112037460,0.69313365,-0.22247836,-0.26927206,0.63052493,11112037460,0.2191011,0.40644568,-0.24690282,11112037460,0.9076265,-9.773517,0.6166197,11112037460,-0.00086737797,-0.00012944173,-0.00013461965
11112047433,0.69314,-0.2224765,-0.26926723,0.63052076,11112047433,0.2201766,0.40433657,-0.2458305,11112047433,0.9210309,-9.786728,0.59838283,11112047433,0.00041921996,0.0020110738,0.0004152786
11112057346,0.6931426,-0.22247635,-0.26926664,0.63051814,11112057346,0.2201938,0.40538794,-0.24694797,11112057346,0.9061864,-9.782665,0.61372805,11112057346,0.00014025532,-0.00076303445,-0.00028707366
11112067640,0.69313604,-0.22247818,-0.26926893,0.6305237,11112067640,0.21796367,0.40434998,-0.24701707,11112067640,0.9141302,-9.7709,0.60718,11112067640,-0.0005181432,-0.0011690576,6.206706e-05
11112077398,0.6931436,-0.22248586,-0.26926842,0.63051295,11112077398,0.22016399,0.40328562,-0.2470543,11112077398,0.9196459,-9.7711315,0.62485945,11112077398,0.00018666778,0.0006840192,8.396758e-05
11112087507,0.6931442,-0.22248884,-0.26926637,0.6305121,11112087507,0.2224136,0.40537518,-0.2492733,11112087507,0.89904636,-9.783328,0.58463156,11112087507,0.00023774151,0.0010143947,8.7554334e-05
11112097428,0.693149,-0.2224858,-0.26926503,0.63050854,11112097428,0.22127159,0.40327907,-0.2470463,11112097428,0.9359414,-9.777512,0.5812809,11112097428,-0.0010947539,0.00021667592,-0.0012979265
11112107352,0.69315237,-0.22248577,-0.26926002,0.63050693,11112107352,0.22239412,0.4043236,-0.24698521,11112107352,0.9045444,-9.802027,0.589525,11112107352,0.00041351374,0.0006816229,0.0006563831
11112117537,0.69315296,-0.22248186,-0.26926103,0.6305073,11112117537,0.22016399,0.40328562,-0.2470543,11112117537,0.91534543,-9.792441,0.56402713,11112117537,0.0012056753,0.0004012501,-0.0003857552
11112127360,0.6931491,-0.22247615,-0.2692593,0.63051426,11112127360,0.22017433,0.40433636,-0.24465987,11112127360,0.9087552,-9.781804,0.5691038,11112127360,-0.00023905002,0.0010677353,0.000116595766
11112137420,0.69315165,-0.22247079,-0.2692484,0.630518,11112137420,0.21691336,0.40856096,-0.2456418,11112137420,0.89635104,-9.763601,0.58504695,11112137420,0.0005899593,0.0011971742,0.00043607247
11112147468,0.69314784,-0.2224672,-0.2692443,0.6305251,11112147468,0.22125897,0.40222812,-0.2482701,11112147468,0.9276992,-9.792828,0.60973155,11112147468,-0.0007722024,0.0016273092,-0.0004872398
11112157424,0.6931501,-0.22246654,-0.26924,0.63052475,11112157424,0.22239412,0.4043236,-0.24698521,11112157424,0.9112592,-9.794839,0.59523255,11112157424,-1.1064112e-05,0.0012474032,0.0003073474
11112167617,0.6931512,-0.22246368,-0.2692408,0.6305243,11112167617,0.2201766,0.40433657,-0.2458305,11112167617,0.90943986,-9.794808,0.60583663,11112167617,-0.00049725734,0.00051132124,-0.0006294099
11112177409,0.693151,-0.22245401,-0.26923984,0.6305282,11112177409,0.2224136,0.40537518,-0.2492733,11112177409,0.9109994,-9.761299,0.56017673,11112177409,0.00062147714,0.0026577087,9.232061e-05
11112187397,0.6931447,-0.22244523,-0.26923797,0.63053906,11112187397,0.22018923,0.40538752,-0.24460673,11112187397,0.9015435,-9.744695,0.57494974,11112187397,-0.00057403743,0.0017144671,6.3383486e-06
11112197508,0.69314706,-0.22244297,-0.2692374,0.6305375,11112197508,0.21907128,0.4043434,-0.24700913,11112197508,0.91989356,-9.750662,0.5949275,11112197508,-0.000267894,0.0007661488,0.00040179375
11112207430,0.69315237,-0.22244252,-0.26923746,0.6305318,11112207430,0.22015941,0.4032852,-0.24471301,11112207430,0.9191054,-9.776035,0.595489,11112207430,0.00061807595,0.0007262118,-0.0006739064
11112217462,0.6931515,-0.22243051,-0.2692419,0.6305351,11112217462,0.21797399,0.4054007,-0.24462265,11112217462,0.9228089,-9.77323,0.5586005,11112217462,0.0002446035,0.0013268674,-0.000475263
11112227431,0.69315255,-0.22243087,-0.26923978,0.63053477,11112227431,0.2201789,0.4043368,-0.24700114,11112227431,0.91847146,-9.790993,0.61097306,11112227431,0.00037685595,-0.00026781857,-0.00066219154
11112237563,0.69315434,-0.22242571,-0.26923862,0.6305351,11112237563,0.22240098,0.4043243,-0.2504971,11112237563,0.91591066,-9.773296,0.60563326,11112237563,-0.001173526,-8.3293766e-05,-0.00019506854
11112247543,0.6931533,-0.22243081,-0.26923746,0.63053495,11112247543,0.22125897,0.40222812,-0.2482701,11112247543,0.8916611,-9.795329,0.5990161,11112247543,-0.00024339836,-0.0009912169,9.3504786e-07
11112257359,0.6931499,-0.22243077,-0.26923582,0.6305393,11112257359,0.2223322,0.40011877,-0.24602714,11112257359,0.90845513,-9.805405,0.5855119,11112257359,-3.4273602e-05,0.00083708763,-0.0005106523
11112267533,0.6931485,-0.22242917,-0.26923507,0.63054186,11112267533,0.2223964,0.40432385,-0.24815583,11112267533,0.8999912,-9.77136,0.61235946,11112267533,-0.00096194074,6.1450526e-05,0.0005392269
11112277511,0.6931503,-0.2224243,-0.2692355,0.6305413,11112277511,0.22241707,0.40642524,-0.24336702,11112277511,0.90288293,-9.782925,0.59042704,11112277511,0.0009413045,6.641075e-05,-0.00056384667
11112287404,0.69314516,-0.22242683,-0.26922923,0.63054883,11112287404,0.22125897,0.40222812,-0.2482701,11112287404,0.9125814,-9.811186,0.5863775,11112287404,-0.00026057567,0.00048664585,0.00047489651
11112297540,0.693144,-0.22242752,-0.26923865,0.63054574,11112297540,0.21910337,0.40644592,-0.24807346,11112297540,0.93229645,-9.794518,0.6083185,11112297540,-0.00053961854,0.00018802937,-0.00043280865
11112307358,0.6931384,-0.22243568,-0.26924744,0.6305453,11112307358,0.22019838,0.40538839,-0.24928923,11112307358,0.91679806,-9.78976,0.6047341,11112307358,-0.0005738931,-0.0010881098,-0.0006597955
11112317414,0.6931374,-0.22244173,-0.26925153,0.6305425,11112317414,0.21908617,0.40539452,-0.24695596,11112317414,0.8893399,-9.799228,0.5975432,11112317414,0.00034570135,-0.00081047695,2.4379697e-06
11112327479,0.6931415,-0.2224478,-0.26924896,0.6305369,11112327479,0.2212693,0.40327883,-0.2458757,11112327479,0.90445215,-9.7980175,0.6123947,11112327479,5.5884942e-05,0.00025592465,-0.00018820772
11112337434,0.6931433,-0.22244565,-0.26925063,0.630535,11112337434,0.22239183,0.4043234,-0.24581458,11112337434,0.91174924,-9.777281,0.5795168,11112337434,0.0003955802,0.0007409686,0.0001992369
11112347472,0.69314617,-0.22244318,-0.26924875,0.6305336,11112347472,0.22240902,0.40537477,-0.24693204,11112347472,0.93899924,-9.761737,0.5680432,11112347472,0.000192089,-0.00048564095,0.0004952401
11112357534,0.69314414,-0.22243437,-0.26925057,0.63053805,11112357534,0.22128652,0.40433022,-0.2469932,11112357534,0.9139762,-9.761549,0.56085575,11112357534,-0.0006243298,0.0006537819,0.0005581309
11112367402,0.69314814,-0.2224385,-0.26924285,0.63053554,11112367402,0.22240445,0.40537435,-0.2445908,11112367402,0.89838713,-9.7846575,0.57379764,11112367402,0.00076291244,-0.00087070465,5.3052092e-05
11112377512,0.6931536,-0.22243014,-0.26924288,0.6305325,11112377512,0.21794418,0.40329838,-0.24472894,11112377512,0.91989464,-9.793631,0.5943985,11112377512,-0.00027001277,-0.0009174822,-0.00070243236
11112387386,0.6931527,-0.22243053,-0.26924187,0.6305338,11112387386,0.22124638,0.40117717,-0.24949384,11112387386,0.91404045,-9.778887,0.5598221,11112387386,0.0010086019,2.1290034e-06,-0.0005915321
11112397391,0.6931508,-0.22243868,-0.26924753,0.6305305,11112397391,0.21904375,0.4022413,-0.24828602,11112397391,0.8946459,-9.773289,0.5920373,11112397391,-0.00010983739,-0.000945637,-0.00022222544
11112407547,0.69315034,-0.22244735,-0.2692509,0.63052654,11112407547,0.2223769,0.40327224,-0.24586771,11112407547,0.9162222,-9.777385,0.6029407,11112407547,-0.000441147,-0.0007871762,-0.00025881967
11112417357,0.6931532,-0.22245398,-0.26924795,0.6305224,11112417357,0.2201766,0.40433657,-0.2458305,11112417357,0.8816883,-9.772042,0.5929341,11112417357,0.00040571392,-0.00054165535,0.00041575404
11112427551,0.69314986,-0.22245744,-0.26925048,0.6305237,11112427551,0.22130369,0.4053816,-0.24811067,11112427551,0.91247785,-9.808568,0.5942078,11112427551,0.00076208543,-0.00058144145,0.00048095058
11112437577,0.69314915,-0.22246405,-0.26925,0.6305224,11112437577,0.22015135,0.4022347,-0.24827804,11112437577,0.9001596,-9.779832,0.6034241,11112437577,0.0012112195,-0.00032063574,0.00050481036
11112447659,0.69314617,-0.22247382,-0.26924863,0.6305228,11112447659,0.22235398,0.40117058,-0.2494859,11112447659,0.90536803,-9.814028,0.60549265,11112447659,0.0002212692,0.00015085936,0.00034101144
11112457616,0.69315016,-0.22248286,-0.26924756,0.63051575,11112457616,0.22238147,0.40327266,-0.24820897,11112457616,0.90629214,-9.791737,0.5844029,11112457616,0.0010373024,-0.0003443677,-0.00010949606
11112467396,0.693149,-0.22248287,-0.26924777,0.63051695,11112467396,0.22015366,0.4022349,-0.24944869,11112467396,0.9047404,-9.794525,0.602053,11112467396,-0.00050740223,-0.0005515395,-8.517224e-05
11112477626,0.69314694,-0.22248277,-0.26924425,0.6305207,11112477626,0.22015592,0.40223518,-0.2506193,11112477626,0.9261266,-9.7965555,0.5734462,11112477626,0.00033926032,-0.0006978195,9.639724e-05
11112487511,0.6931501,-0.22248255,-0.2692463,0.63051635,11112487511,0.22124638,0.40117717,-0.24949384,11112487511,0.91559136,-9.780248,0.5903153,11112487511,0.00087861065,-0.00021116622,2.6119407e-05
11112497402,0.6931502,-0.22248669,-0.26924777,0.63051414,11112497402,0.22237346,0.4022222,-0.251774,11112497402,0.9187317,-9.770946,0.60621643,11112497402,0.0013898341,0.00082512666,0.00017383252
11112507511,0.69314814,-0.22248253,-0.26925644,0.63051426,11112507511,0.22013189,0.4011831,-0.24598993,11112507511,0.9046184,-9.755227,0.5760458,11112507511,-0.0006478578,0.00037122425,-0.00028599007
11112517425,0.69315076,-0.22248276,-0.26924863,0.6305146,11112517425,0.22126472,0.40327835,-0.24353442,11112517425,0.91326076,-9.772945,0.6092819,11112517425,-0.0002127206,0.00018677767,0.00023490074
11112527363,0.6931536,-0.22247657,-0.2692492,0.6305134,11112527363,0.21686637,0.40540728,-0.2446306,11112527363,0.92587996,-9.760433,0.57283765,11112527363,0.0007765498,-2.6644208e-05,-0.0009020057
11112537530,0.69315404,-0.2224765,-0.26924926,0.63051295,11112537530,0.21907128,0.4043434,-0.24700913,11112537530,0.9082608,-9.780566,0.5986835,11112537530,2.0725653e-05,0.00069614593,0.000105444575
11112547360,0.6931513,-0.2224793,-0.26924807,0.63051546,11112547360,0.21686865,0.4054075,-0.24580124,11112547360,0.8979442,-9.759487,0.5984644,11112547360,-0.0007490888,0.0005510524,0.0006663194
11112557645,0.6931588,-0.22248137,-0.26923978,0.63051015,11112557645,0.2212693,0.40327883,-0.2458757,11112557645,0.9063023,-9.783396,0.6106707,11112557645,0.0009875521,0.0022446495,0.00054589426
11112567401,0.693165,-0.22247165,-0.26924157,0.6305059,11112567401,0.21795103,0.40329903,-0.24824083,11112567401,0.92665315,-9.778746,0.5957338,11112567401,0.00041415356,0.0014703488,-0.00041675568
11112577411,0.69316936,-0.22246458,-0.26923957,0.6305044,11112577411,0.2191286,0.4085478,-0.2456259,11112577411,0.92226636,-9.78363,0.6107098,11112577411,0.0005161911,0.0010762103,5.804468e-07
11112587496,0.6931719,-0.22245933,-0.26923674,0.6305047,11112587496,0.2201789,0.4043368,-0.24700114,11112587496,0.9199043,-9.771267,0.59452844,11112587496,0.00024150033,0.0004331516,-0.000144138
11112597401,0.69317985,-0.2224524,-0.26923415,0.6304995,11112597401,0.22016625,0.40328586,-0.2482249,11112597401,0.9331506,-9.768526,0.5782409,11112597401,0.00046030246,0.0015380299,-0.0003338859
11112607398,0.6931832,-0.2224568,-0.2692336,0.63049453,11112607398,0.22018118,0.404337,-0.24817176,11112607398,0.9085498,-9.789118,0.59571445,11112607398,0.0014502518,-0.00024053548,0.00039482024
11112617509,0.69317764,-0.22245757,-0.26923555,0.6304996,11112617509,0.21908389,0.40539432,-0.24578531,11112617509,0.90700406,-9.785675,0.5662305,11112617509,-0.0006418675,2.7325936e-05,-0.00011154101
11112627437,0.6931733,-0.22245616,-0.26923093,0.63050675,11112627437,0.21797162,0.40330103,-0.25877652,11112627437,0.91587853,-9.773056,0.5746385,11112627437,8.3757564e-05,0.0009544147,0.0014880458
11112637467,0.6931673,-0.22245553,-0.26923335,0.63051254,11112637467,0.22016168,0.4032854,-0.24588364,11112637467,0.91007006,-9.781169,0.57573295,11112637467,-0.00038104877,-0.001777486,0.00042824494
11112647432,0.6931627,-0.22245698,-0.2692373,0.6305155,11112647432,0.21796137,0.40434974,-0.24584644,11112647432,0.9282595,-9.8,0.58290625,11112647432,-0.0009579826,0.000102988444,0.0010541906
11112657495,0.69316477,-0.2224572,-0.2692396,0.6305121,11112657495,0.22016399,0.40328562,-0.2470543,11112657495,0.91622794,-9.790935,0.59812737,11112657495,0.00051020365,0.00032450445,-0.00044608582
11112667494,0.69316685,-0.22245601,-0.2692397,0.6305102,11112667494,0.21796367,0.40434998,-0.24701707,11112667494,0.9374356,-9.786848,0.5903674,11112667494,-0.00048673246,9.5757656e-05,-0.00096887816
11112677413,0.6931692,-0.22245292,-0.26924217,0.6305077,11112677413,0.22128421,0.40433,-0.24582256,11112677413,0.91598904,-9.79435,0.5937672,11112677413,-0.0006042011,0.00017271377,-0.0004324203
11112687508,0.69317496,-0.22245108,-0.26923907,0.6305033,11112687508,0.22350632,0.40431747,-0.24931853,11112687508,0.917366,-9.781313,0.60244745,11112687508,0.00018201489,-0.0008417545,-0.0005190412
11112697396,0.6931785,-0.22245441,-0.26923496,0.6304999,11112697396,0.22127159,0.40327907,-0.2470463,11112697396,0.91596055,-9.764772,0.6035745,11112697396,-0.00011949148,0.00090957526,-0.00083833607
11112707380,0.69317997,-0.22245911,-0.2692363,0.63049614,11112707380,0.21907586,0.4043438,-0.24935038,11112707380,0.89035296,-9.770836,0.61876994,11112707380,0.00032803323,-0.00024084467,6.266404e-05
11112717530,0.6931719,-0.22245687,-0.26923537,0.6305061,11112717530,0.21904375,0.4022413,-0.24828602,11112717530,0.90941495,-9.756104,0.55316013,11112717530,-0.0006085001,0.0017714761,0.0010918218
11112727362,0.6931748,-0.22245382,-0.2692303,0.6305063,11112727362,0.22125669,0.40222788,-0.24709944,11112727362,0.9146225,-9.770817,0.59776115,11112727362,0.000113424845,0.00077697635,-0.00072274683
11112737636,0.6931735,-0.22244726,-0.26923305,0.6305087,11112737636,0.22017083,0.4032863,-0.25056618,11112737636,0.92799735,-9.769725,0.59062815,11112737636,0.00047725998,0.0013772091,-0.00027213176
11112747474,0.69316983,-0.22244504,-0.26923552,0.63051254,11112747474,0.22128879,0.4043304,-0.2481638,11112747474,0.9311142,-9.766739,0.5794442,11112747474,-0.00047172792,0.0006156573,0.00050257845
11112757536,0.69316995,-0.22244602,-0.2692374,0.6305112,11112757536,0.22130369,0.4053816,-0.24811067,11112757536,0.91109335,-9.774836,0.5756093,11112757536,-0.00026985072,-0.0002503097,7.309136e-05
11112767504,0.6931646,-0.22244371,-0.2692457,0.6305144,11112767504,0.22348681,0.4032659,-0.24703038,11112767504,0.89625,-9.766504,0.5920543,11112767504,0.00081140455,-0.00025181193,-0.00072396314
11112777405,0.6931652,-0.2224458,-0.26924476,0.6305135,11112777405,0.2201766,0.40433657,-0.2458305,11112777405,0.90570974,-9.786741,0.57618374,11112777405,0.00029475987,0.00040500145,0.00021580886
11112787392,0.6931613,-0.22245272,-0.26924282,0.6305161,11112787392,0.21682395,0.40225402,-0.24596067,11112787392,0.88297266,-9.788524,0.58754367,11112787392,0.00013746135,0.00011569355,8.478807e-05
11112797501,0.69315773,-0.22245692,-0.2692435,0.63051826,11112797501,0.21907128,0.4043434,-0.24700913,11112797501,0.919814,-9.788631,0.59400135,11112797501,-8.798763e-05,0.0005622739,0.0005663377
11112807396,0.69315857,-0.2224551,-0.2692471,0.63051647,11112807396,0.22013646,0.40118352,-0.24833117,11112807396,0.9050275,-9.784484,0.5517888,11112807396,0.00043711625,0.00039442722,-0.0011358374
11112817390,0.69315225,-0.2224548,-0.26925257,0.6305211,11112817390,0.21794645,0.40329862,-0.24589957,11112817390,0.9229578,-9.78698,0.5662662,11112817390,0.0005879188,7.4160285e-05,0.0004155254
11112827533,0.6931539,-0.22245866,-0.2692515,0.63051844,11112827533,0.2212693,0.40327883,-0.2458757,11112827533,0.9079862,-9.813509,0.5913753,11112827533,-6.0521998e-05,-0.0004210584,-0.0004769473
11112837346,0.69315225,-0.22245595,-0.26924992,0.6305219,11112837346,0.22128652,0.40433022,-0.2469932,11112837346,0.93475896,-9.788103,0.5924898,11112837346,-0.00044061523,-0.00027916674,0.0003930747
11112847542,0.6931475,-0.22245173,-0.26925218,0.6305277,11112847542,0.21907128,0.4043434,-0.24700913,11112847542,0.9208213,-9.803148,0.59827286,11112847542,-0.00051404536,0.0006690668,0.00010103779
11112857491,0.6931476,-0.22245598,-0.26925185,0.6305262,11112857491,0.21798661,0.4064516,-0.24339887,11112857491,0.9019844,-9.784652,0.58971626,11112857491,0.0006955322,-0.00015084259,0.00041397708
11112867402,0.6931458,-0.2224584,-0.26925015,0.6305279,11112867402,0.2191137,0.40749663,-0.24567907,11112867402,0.9207935,-9.781502,0.58341503,11112867402,0.00095879845,-3.0552037e-05,0.00045321044
11112877512,0.6931392,-0.22246093,-0.26925272,0.63053334,11112877512,0.22019607,0.40538818,-0.24811862,11112877512,0.9060425,-9.788768,0.54815423,11112877512,0.0006285561,-0.0003978312,-5.4172473e-05
11112887394,0.69313246,-0.22245938,-0.26926333,0.6305367,11112887394,0.2212693,0.40327883,-0.2458757,11112887394,0.9333895,-9.780173,0.5788227,11112887394,0.00028881524,-0.00068783574,-0.00034419913
11112897511,0.69313705,-0.22245772,-0.26926768,0.63053036,11112897511,0.22131401,0.4064323,-0.24571624,11112897511,0.91808736,-9.765568,0.6038147,11112897511,-0.00035322737,-0.000908562,-0.001193101
11112907394,0.69313926,-0.22245084,-0.26926792,0.6305303,11112907394,0.22131175,0.4064321,-0.24454564,11112907394,0.90646905,-9.7647,0.6178783,11112907394,2.6114285e-06,-0.00084750634,-0.00031866273
11112917378,0.69314545,-0.2224487,-0.26926243,0.63052654,11112917378,0.22128195,0.40432978,-0.24465191,11112917378,0.9004842,-9.76202,0.5869973,11112917378,-0.0004210379,-0.0012815213,-0.00072647794
11112927506,0.6931494,-0.2224476,-0.26925874,0.6305243,11112927506,0.2213014,0.40538135,-0.24694003,11112927506,0.9296127,-9.748081,0.5757285,11112927506,0.00015830714,0.00035203435,1.1937227e-05
11112937643,0.693151,-0.2224493,-0.26926178,0.6305206,11112937643,0.22014908,0.40223446,-0.2471074,11112937643,0.89824,-9.77748,0.58624303,11112937643,-0.0010386733,-0.00035432447,-0.0006983585
11112947582,0.6931514,-0.22244704,-0.26926288,0.63052034,11112947582,0.22124638,0.40117717,-0.24949384,11112947582,0.9352786,-9.79014,0.61699414,11112947582,-0.00039263722,-0.00049408805,1.4156802e-05
11112957659,0.6931493,-0.22244897,-0.26926273,0.63052213,11112957659,0.22237921,0.40327248,-0.24703833,11112957659,0.9108669,-9.781151,0.5822023,11112957659,-0.0009962218,-0.0009631794,0.0003278714
11112967398,0.69314724,-0.2224446,-0.26926395,0.6305254,11112967398,0.2223964,0.40432385,-0.24815583,11112967398,0.8901024,-9.801894,0.5832642,11112967398,5.680509e-05,0.00027760398,6.8320194e-05
11112977744,0.6931472,-0.22244972,-0.2692589,0.6305258,11112977744,0.2212544,0.40222767,-0.24592884,11112977744,0.9006295,-9.794399,0.58588123,11112977744,-6.942637e-05,-0.0005828552,-0.00032665138
11112987400,0.6931407,-0.22244965,-0.26925677,0.63053393,11112987400,0.22018118,0.404337,-0.24817176,11112987400,0.9131362,-9.79366,0.55674636,11112987400,3.0386262e-05,-0.00028901175,0.00030671083
11112997407,0.69313735,-0.22245887,-0.26925245,0.6305361,11112997407,0.2223643,0.4022213,-0.24709147,11112997407,0.8870942,-9.793386,0.5966841,11112997407,0.00011607725,-0.0013896553,0.00039531733
11113007522,0.69313276,-0.2224657,-0.2692564,0.6305371,11113007522,0.22129683,0.40538093,-0.24459878,11113007522,0.9105805,-9.802917,0.6091838,11113007522,-0.00027653016,0.0007185498,0.00019510137
11113017399,0.69313663,-0.2224744,-0.26925978,0.63052833,11113017399,0.2213014,0.40538135,-0.24694003,11113017399,0.909209,-9.766076,0.62529016,11113017399,0.0010368116,6.057974e-05,0.00041267974
11113027541,0.6931415,-0.22247502,-0.2692596,0.6305229,11113027541,0.22127159,0.40327907,-0.2470463,11113027541,0.91069764,-9.779942,0.5863815,11113027541,0.00013585761,0.00035193656,-0.00010982435
11113037360,0.6931435,-0.22247672,-0.26926115,0.6305194,11113037360,0.21798314,0.40540156,-0.24930519,11113037360,0.90138185,-9.788985,0.6226418,11113037360,0.0003915578,-0.00080374256,-0.00029141246
11113047446,0.6931444,-0.22247313,-0.26926157,0.6305195,11113047446,0.22018118,0.404337,-0.24817176,11113047446,0.9368013,-9.778563,0.5981104,11113047446,-0.0005754614,8.4743835e-05,0.00070984825
11113057616,0.69314367,-0.22246556,-0.2692619,0.6305227,11113057616,0.2212693,0.40327883,-0.2458757,11113057616,0.9228203,-9.782396,0.5636157,11113057616,0.00060113426,2.345629e-05,0.00022903387
11113067402,0.693141,-0.22245699,-0.26925975,0.6305297,11113067402,0.21794418,0.40329838,-0.24472894,11113067402,0.90362924,-9.789418,0.5781969,11113067402,0.00021364726,0.00023894291,-0.0011875464
11113077410,0.6931429,-0.22245152,-0.2692519,0.6305329,11113077410,0.22240672,0.40537456,-0.24576141,11113077410,0.9250771,-9.757154,0.60847276,11113077410,-5.2408315e-05,0.00081467256,-4.8913993e-05
11113087511,0.6931508,-0.22244473,-0.26925075,0.63052714,11113087511,0.22127159,0.40327907,-0.2470463,11113087511,0.92252296,-9.763776,0.6120708,11113087511,-0.000261629,0.00026596244,-0.00029185275
11113097401,0.69315493,-0.22243366,-0.26925546,0.6305244,11113097401,0.21904375,0.4022413,-0.24828602,11113097401,0.9374727,-9.762936,0.62121093,11113097401,-0.00032587722,0.00037840474,-0.0005020092
11113107494,0.693159,-0.22243327,-0.26925448,0.6305205,11113107494,0.22013646,0.40118352,-0.24833117,11113107494,0.9155329,-9.747106,0.55176467,11113107494,-4.2858534e-05,6.167218e-06,0.0010133132
11113117409,0.69315875,-0.2224306,-0.26925024,0.6305236,11113117409,0.21909879,0.40644547,-0.2457322,11113117409,0.8845397,-9.751766,0.609646,11113117409,-0.00041988306,0.0019261912,-0.0005671736
11113127412,0.6931629,-0.2224233,-0.26924312,0.6305246,11113127412,0.21905637,0.4032922,-0.24706227,11113127412,0.94492507,-9.749069,0.5765889,11113127412,0.0003263494,0.002142393,2.6676338e-05
11113137539,0.69317067,-0.22241747,-0.2692406,0.6305192,11113137539,0.21910568,0.4064461,-0.2492441,11113137539,0.91838396,-9.782465,0.59616005,11113137539,-0.00024103373,0.0008678995,0.0006798315
11113147374,0.6931723,-0.2224112,-0.26923755,0.630521,11113147374,0.22128195,0.40432978,-0.24465191,11113147374,0.89803064,-9.777338,0.5818231,11113147374,0.0005276706,0.0007793261,-0.0014706473
11113157646,0.69316804,-0.22240701,-0.2692351,0.63052815,11113157646,0.21908389,0.40539432,-0.24578531,11113157646,0.89659804,-9.79008,0.5571403,11113157646,-0.00022233278,0.00040930044,-0.00047511305
11113167402,0.69316876,-0.22239868,-0.26922855,0.63053304,11113167402,0.22018692,0.40538728,-0.24343608,11113167402,0.8984324,-9.780317,0.5714448,11113167402,0.0005340809,0.0023287246,-0.00078937225
11113177428,0.69316924,-0.22239546,-0.26921827,0.630538,11113177428,0.2201915,0.40538776,-0.24577734,11113177428,0.8956699,-9.79084,0.5829115,11113177428,0.00044826046,0.0014182432,0.0001599628
11113187516,0.69316983,-0.22239792,-0.26921347,0.6305386,11113187516,0.2212693,0.40327883,-0.2458757,11113187516,0.9211207,-9.791197,0.58723605,11113187516,0.0003588153,0.0007886337,-0.00021235063
11113197404,0.6931702,-0.22239885,-0.26921612,0.6305368,11113197404,0.22128879,0.4043304,-0.2481638,11113197404,0.93214375,-9.770427,0.57859755,11113197404,-0.00024598837,-0.00027449336,-0.00043466152
11113207407,0.69316536,-0.22239912,-0.2692258,0.6305378,11113207407,0.22127159,0.40327907,-0.2470463,11113207407,0.9096037,-9.778757,0.5960355,11113207407,7.1926042e-06,-0.00048612803,-2.1846732e-05
11113217496,0.69316614,-0.22239502,-0.2692252,0.63053864,11113217496,0.22019607,0.40538818,-0.24811862,11113217496,0.911831,-9.797252,0.57292706,11113217496,-0.00044060033,-0.00033576787,-0.00010374584
11113227399,0.69316465,-0.22239399,-0.26922408,0.63054115,11113227399,0.2213014,0.40538135,-0.24694003,11113227399,0.9358884,-9.779468,0.6082751,11113227399,-0.00062767323,0.00045452546,0.00014729472
11113237713,0.69316137,-0.22239573,-0.26922864,0.63054216,11113237713,0.22013876,0.40118375,-0.24950182,11113237713,0.93409824,-9.776392,0.55101967,11113237713,0.00061220676,0.00014254171,1.39232725e-05
11113247436,0.6931622,-0.2223953,-0.2692296,0.6305411,11113247436,0.2212418,0.40117672,-0.24715258,11113247436,0.9114852,-9.772743,0.6035708,11113247436,0.00060231145,-0.0006072242,-9.2233066e-05
11113257505,0.6931586,-0.22238545,-0.26922882,0.6305487,11113257505,0.22569174,0.40220198,-0.24940884,11113257505,0.9255034,-9.768263,0.5766713,11113257505,-0.0007329257,0.0009731734,-0.00048633432
11113267509,0.6931588,-0.22238287,-0.26922387,0.6305516,11113267509,0.22125669,0.40222788,-0.24709944,11113267509,0.901024,-9.775258,0.57961845,11113267509,-0.0006587021,0.00085394364,0.00045014848
11113277411,0.6931587,-0.22238234,-0.26922157,0.63055295,11113277411,0.22128195,0.40432978,-0.24465191,11113277411,0.91394234,-9.7755785,0.5914922,11113277411,-0.0005179141,-0.00037267432,0.00020875549
11113287404,0.6931598,-0.22238049,-0.26922053,0.6305527,11113287404,0.22126701,0.40327862,-0.24470505,11113287404,0.91364235,-9.745929,0.59503466,11113287404,1.7876737e-05,-0.00044517964,-0.00015735067
11113297512,0.69315773,-0.22238047,-0.26922438,0.6305535,11113297512,0.2223964,0.40432385,-0.24815583,11113297512,0.9073876,-9.780928,0.6043575,11113297512,-0.00052296836,0.00018355623,-0.00051681814
11113307391,0.6931503,-0.22238988,-0.26922777,0.6305568,11113307391,0.22013418,0.40118334,-0.24716054,11113307391,0.92356414,-9.805594,0.55861074,11113307391,0.00032849144,-0.00048808474,0.0006535088
11113317493,0.6931485,-0.22239377,-0.2692361,0.63055384,11113317493,0.22128879,0.4043304,-0.2481638,11113317493,0.92807126,-9.770675,0.58062816,11113317493,-0.00041326042,-0.0011314759,0.0010771996
11113327394,0.69314855,-0.22239755,-0.26923528,0.6305528,11113327394,0.22130369,0.4053816,-0.24811067,11113327394,0.9149826,-9.769606,0.5615039,11113327394,0.00064118113,-0.00059363525,-0.00010665273
11113337386,0.6931524,-0.22240184,-0.26924,0.6305451,11113337386,0.22130369,0.4053816,-0.24811067,11113337386,0.9329097,-9.786254,0.60093397,11113337386,1.1712313e-05,-0.0018022219,-0.00024925452
11113347505,0.6931506,-0.2224075,-0.2692439,0.63054335,11113347505,0.21907128,0.4043434,-0.24700913,11113347505,0.89952695,-9.787447,0.58924407,11113347505,-4.217401e-05,-0.0011319248,0.00015268731
11113357529,0.6931504,-0.22241415,-0.26924643,0.63054013,11113357529,0.21911599,0.40749687,-0.24684967,11113357529,0.91012603,-9.772446,0.61009157,11113357529,0.0003794683,-0.0009219749,-0.00022588833
11113367508,0.6931514,-0.22241196,-0.26924062,0.6305423,11113367508,0.21908389,0.40539432,-0.24578531,11113367508,0.9248568,-9.7933855,0.62583375,11113367508,0.0006503556,0.00044401735,0.00030730478
11113377401,0.69315964,-0.22240706,-0.26923493,0.6305374,11113377401,0.22239183,0.4043234,-0.24581458,11113377401,0.9328238,-9.791019,0.5748569,11113377401,0.0008619586,0.00038140733,-0.00037770905
11113387384,0.6931555,-0.22240768,-0.26924145,0.630539,11113387384,0.22018118,0.404337,-0.24817176,11113387384,0.8994932,-9.790789,0.5773888,11113387384,7.166527e-05,-0.000761278,-0.0008112155
11113397498,0.6931548,-0.2224145,-0.26923835,0.63053864,11113397498,0.2212911,0.40433064,-0.24933445,11113397498,0.90009093,-9.783871,0.6155556,11113397498,1.9489788e-05,-0.00043352786,-6.266241e-05
11113407400,0.6931555,-0.22241747,-0.2692433,0.63053465,11113407400,0.22238378,0.4032729,-0.2493796,11113407400,0.90697944,-9.774786,0.6038947,11113407400,0.0010360843,-0.001394215,-0.00012440351
11113417385,0.6931533,-0.22241934,-0.26924697,0.63053495,11113417385,0.2213014,0.40538135,-0.24694003,11113417385,0.91561747,-9.773108,0.5841179,11113417385,7.414259e-05,-0.000605369,0.00027144537
11113427505,0.6931608,-0.22241612,-0.26924714,0.6305277,11113427505,0.21795909,0.40434957,-0.24467582,11113427505,0.91414315,-9.777985,0.5884321,11113427505,-9.9848956e-05,-0.00074598845,-0.0011185426
11113437603,0.69316685,-0.2224103,-0.26924586,0.6305237,11113437603,0.22238147,0.40327266,-0.24820897,11113437603,0.9280906,-9.776217,0.5756182,11113437603,0.0010142224,-0.0010148976,9.91188e-05
11113447873,0.6931644,-0.22240907,-0.26924634,0.63052654,11113447873,0.22128652,0.40433022,-0.2469932,11113447873,0.9155953,-9.751686,0.5925384,11113447873,-0.00013646949,-0.0006719101,0.000486671
11113457383,0.6931691,-0.22240561,-0.26924315,0.630524,11113457383,0.22127159,0.40327907,-0.2470463,11113457383,0.9009471,-9.756727,0.6558005,11113457383,-0.001161485,0.00013704784,-0.00044282363
11113467387,0.69317794,-0.22240317,-0.26923573,0.6305183,11113467387,0.21907128,0.4043434,-0.24700913,11113467387,0.9225792,-9.768118,0.5730852,11113467387,0.0012782756,0.0016711447,-0.00032649701
11113477734,0.6931753,-0.22239956,-0.2692407,0.63052034,11113477734,0.22240902,0.40537477,-0.24693204,11113477734,0.90947163,-9.743201,0.59026575,11113477734,-5.74477e-05,-2.8973445e-06,-0.0007105672
11113487398,0.6931766,-0.2224007,-0.26923546,0.6305207,11113487398,0.22016168,0.4032854,-0.24588364,11113487398,0.90605855,-9.782844,0.5837228,11113487398,-0.00087772775,0.0007166136,-0.00023070117
11113497507,0.6931733,-0.22240411,-0.26923543,0.6305232,11113497507,0.22344896,0.40011308,-0.2507017,11113497507,0.9206825,-9.771624,0.5753294,11113497507,-0.000379215,1.3494864e-05,0.00039464538
11113507394,0.6931741,-0.22240661,-0.26923975,0.6305197,11113507394,0.21796367,0.40434998,-0.24701707,11113507394,0.8995428,-9.773177,0.5698609,11113507394,0.0008627493,-5.197618e-05,-0.0007106934
11113517381,0.6931728,-0.2224109,-0.26924008,0.6305194,11113517381,0.2191011,0.40644568,-0.24690282,11113517381,0.9209827,-9.793516,0.58201504,11113517381,0.00029630493,0.00049601775,0.0010717113
11113527504,0.6931714,-0.22241062,-0.2692456,0.63051873,11113527504,0.22129911,0.40538117,-0.24576938,11113527504,0.92346674,-9.786366,0.60927284,11113527504,-0.00026739482,-0.0005420614,0.0011569997
11113537396,0.693171,-0.22240973,-0.26924747,0.6305186,11113537396,0.2191011,0.40644568,-0.24690282,11113537396,0.89984334,-9.800426,0.5697694,11113537396,5.237758e-05,0.0009478489,-0.0004511585
11113547400,0.6931698,-0.2224088,-0.26923826,0.6305243,11113547400,0.22020641,0.4064389,-0.24572423,11113547400,0.8939799,-9.8000555,0.6091376,11113547400,0.00020751543,0.0017631147,-0.00013138936
11113557646,0.69317424,-0.22240378,-0.2692281,0.6305254,11113557646,0.22128652,0.40433022,-0.2469932,11113557646,0.8973815,-9.777451,0.5982895,11113557646,-0.00034982618,0.001884128,-0.00066318526
11113567394,0.6931735,-0.22240071,-0.26922476,0.63052875,11113567394,0.22129911,0.40538117,-0.24576938,11113567394,0.8994596,-9.791374,0.60179555,11113567394,-0.00039429683,0.00044894498,-0.0004885753
11113577509,0.69317526,-0.22239815,-0.26921907,0.63053006,11113577509,0.21905407,0.403292,-0.24589163,11113577509,0.90626645,-9.816844,0.5779824,11113577509,0.00049477816,5.0796196e-05,0.00025431858
11113587386,0.69317406,-0.22239365,-0.26921532,0.6305346,11113587386,0.22133349,0.40748388,-0.24800439,11113587386,0.92997056,-9.777692,0.5872332,11113587386,-0.00015957747,0.0010825135,-0.0006639301
11113597398,0.69317347,-0.22238682,-0.26921564,0.63053757,11113597398,0.21906899,0.40434316,-0.24583848,11113597398,0.9043623,-9.769307,0.5947304,11113597398,-7.28881e-05,0.00021636672,0.0002770105
11113607500,0.6931793,-0.22238444,-0.2692163,0.6305317,11113607500,0.22015592,0.40223518,-0.2506193,11113607500,0.92296106,-9.73794,0.59716856,11113607500,-0.00029235613,0.00048039202,-0.0014924709
11113617404,0.69317985,-0.22237942,-0.2692122,0.6305347,11113617404,0.21909653,0.40644526,-0.24456157,11113617404,0.9121504,-9.746223,0.57519877,11113617404,-0.00025815144,0.000878714,4.1040825e-05
11113627397,0.69317955,-0.22236963,-0.26921055,0.6305392,11113627397,0.22240672,0.40537456,-0.24576141,11113627397,0.9367386,-9.793342,0.55996203,11113627397,-0.0005763862,0.00043262076,0.0011853832
11113637490,0.69318295,-0.22236508,-0.26920483,0.6305394,11113637490,0.22242393,0.40642595,-0.2468789,11113637490,0.94070125,-9.774302,0.5720274,11113637490,-6.822217e-05,0.0015525082,0.00024477066
11113647469,0.69318825,-0.22235955,-0.26920602,0.6305351,11113647469,0.22128652,0.40433022,-0.2469932,11113647469,0.93524337,-9.744393,0.60745835,11113647469,0.0004414022,0.0016229898,-0.0004871143
11113657561,0.6931879,-0.22234829,-0.2692082,0.63053846,11113657561,0.22237463,0.40327203,-0.24469708,11113657561,0.91546345,-9.75394,0.56369597,11113657561,-7.479079e-05,0.0012121126,-6.816373e-05
11113667385,0.6931873,-0.22234222,-0.2692051,0.63054264,11113667385,0.22015941,0.4032852,-0.24471301,11113667385,0.89549726,-9.761881,0.6067498,11113667385,-0.00033602957,0.0009024944,-0.00068904296
11113677414,0.69318473,-0.22234383,-0.26920235,0.6305461,11113677414,0.2201789,0.4043368,-0.24700114,11113677414,0.8992328,-9.777723,0.57323563,11113677414,-0.00019363593,-1.2874603e-05,6.224401e-05
11113687501,0.6931801,-0.2223413,-0.2692046,0.630551,11113687501,0.22238378,0.4032729,-0.2493796,11113687501,0.9143208,-9.771947,0.5547365,11113687501,-0.00010285899,-0.0001544645,-0.000507446
11113697398,0.6931771,-0.22233663,-0.26920474,0.6305559,11113697398,0.22130369,0.4053816,-0.24811067,11113697398,0.90948194,-9.796856,0.61318237,11113697398,-0.0013044672,0.0013312697,0.00018095132
11113707492,0.6931788,-0.2223363,-0.26920685,0.63055325,11113707492,0.2212693,0.40327883,-0.2458757,11113707492,0.9010994,-9.801828,0.5798665,11113707492,-0.00030770153,0.00078460947,-0.00016162684
11113717376,0.69317997,-0.22233805,-0.26921284,0.63054883,11113717376,0.21682625,0.40225425,-0.2471313,11113717376,0.92766875,-9.775643,0.56954694,11113717376,0.00073993765,0.00030817278,-6.0166698e-05
11113727396,0.69317824,-0.22233853,-0.2692169,0.63054883,11113727396,0.22131632,0.40643254,-0.2468869,11113727396,0.92708,-9.792967,0.564018,11113727396,-0.00076391734,-0.0002644919,-0.00037104916
11113737712,0.6931759,-0.22233838,-0.2692145,0.6305524,11113737712,0.21904375,0.4022413,-0.24828602,11113737712,0.9052745,-9.799499,0.6035402,11113737712,0.0012952061,-0.001331917,0.00033105933
11113747542,0.69317836,-0.22233722,-0.26921767,0.63054883,11113747542,0.22127616,0.40327948,-0.24938759,11113747542,0.9362916,-9.804589,0.592078,11113747542,0.00041347928,0.00055827666,-0.0001409247
11113757352,0.6931751,-0.22233817,-0.26922208,0.63055015,11113757352,0.22236203,0.40222108,-0.24592085,11113757352,0.9025879,-9.788814,0.57917583,11113757352,0.00034117233,-0.00029307418,-0.0009788293
11113767543,0.6931692,-0.22233573,-0.26922217,0.63055754,11113767543,0.22351089,0.40431792,-0.25165978,11113767543,0.92568564,-9.789625,0.5511879,11113767543,-0.0003176108,0.00016030762,-0.0005075224
11113777411,0.69316894,-0.22234115,-0.26923102,0.6305521,11113777411,0.21903116,0.40119034,-0.2495098,11113777411,0.91483086,-9.77373,0.56935924,11113777411,0.0006526783,-0.0012614178,0.00029236567
11113787495,0.69316435,-0.2223437,-0.26924548,0.6305501,11113787495,0.22131632,0.40643254,-0.2468869,11113787495,0.93316907,-9.76909,0.5850977,11113787495,0.0007006405,-0.0015035355,-0.0003174739
11113797398,0.6931716,-0.22234485,-0.26924682,0.6305411,11113797398,0.22351663,0.40536818,-0.2469241,11113797398,0.90434253,-9.774773,0.62379587,11113797398,0.00041905046,-0.0011826381,-0.00023847097
11113807396,0.6931785,-0.2223469,-0.26924637,0.6305331,11113807396,0.22130598,0.4053818,-0.24928129,11113807396,0.93514717,-9.779234,0.59271055,11113807396,0.0005093068,-0.0005524568,6.70962e-05
11113817498,0.69318014,-0.22234605,-0.26924822,0.6305307,11113817498,0.21910912,0.40749615,-0.24333781,11113817498,0.93286633,-9.760247,0.60421664,11113817498,0.00023094192,-0.0007236786,-0.00011703046
11113827392,0.6931828,-0.22234446,-0.26924834,0.6305283,11113827392,0.22238955,0.4043232,-0.24464394,11113827392,0.910721,-9.7924,0.5437942,11113827392,0.0011842856,-0.0005538603,6.2692445e-05
11113837497,0.69318175,-0.2223495,-0.26925552,0.6305246,11113837497,0.22013189,0.4011831,-0.24598993,11113837497,0.91978955,-9.757156,0.6061257,11113837497,-0.0002677804,-0.00093343295,0.00027389615
11113847515,0.69318354,-0.22234915,-0.26925665,0.6305223,11113847515,0.21907356,0.40434358,-0.24817973,11113847515,0.91530615,-9.777559,0.61621165,11113847515,0.0007344363,-0.0010513971,-0.0006827018
11113857422,0.69318265,-0.2223472,-0.2692513,0.63052624,11113857422,0.2213014,0.40538135,-0.24694003,11113857422,0.88485456,-9.781338,0.57594407,11113857422,0.0007821303,-0.00030259416,0.0002960218
11113867519,0.6931757,-0.22235265,-0.2692499,0.6305326,11113867519,0.21796137,0.40434974,-0.24584644,11113867519,0.9156419,-9.768675,0.597541,11113867519,-0.0019635335,-0.00083432347,-1.4983583e-05
11113877403,0.6931726,-0.22235173,-0.26926187,0.63053125,11113877403,0.21910337,0.40644592,-0.24807346,11113877403,0.92417836,-9.788599,0.55321014,11113877403,-0.00023143739,-0.0011584368,-0.0007872067
11113887396,0.69317293,-0.22235768,-0.26926455,0.6305275,11113887396,0.21904604,0.4022415,-0.24945666,11113887396,0.92542106,-9.806355,0.6148551,11113887396,0.0020719422,-0.00011067744,0.00030214433
11113897507,0.6931768,-0.22236279,-0.26926562,0.63052106,11113897507,0.22348681,0.4032659,-0.24703038,11113897507,0.89923066,-9.800649,0.61675274,11113897507,-0.00016554352,-0.00087676477,-0.00094467495
11113907385,0.693181,-0.22236522,-0.26926026,0.6305179,11113907385,0.22458182,0.40220833,-0.24824618,11113907385,0.8970778,-9.810467,0.6133533,11113907385,-0.0004565306,-0.00039422233,0.00036908942
11113917501,0.69317967,-0.22236964,-0.2692547,0.6305201,11113917501,0.22125669,0.40222788,-0.24709944,11113917501,0.9232784,-9.771624,0.5980376,11113917501,-0.00025877543,-0.000758457,-4.5746332e-05
11113927413,0.6931779,-0.22236241,-0.2692554,0.63052446,11113927413,0.21908389,0.40539432,-0.24578531,11113927413,0.9394595,-9.788994,0.567127,11113927413,-0.00078821555,-0.00015319977,-0.00033836835
11113937605,0.6931736,-0.22236371,-0.26926106,0.6305261,11113937605,0.22236659,0.40222153,-0.2482621,11113937605,0.8991961,-9.799398,0.60929024,11113937605,-0.0006404724,-0.0007188376,-0.0003113211
11113947877,0.6931728,-0.22237341,-0.2692555,0.63052595,11113947877,0.22347192,0.40221474,-0.24708351,11113947877,0.90500337,-9.7880945,0.6116091,11113947877,0.00021435693,-6.238837e-05,-0.0006129837
11113957359,0.69316685,-0.22237498,-0.26925805,0.63053095,11113957359,0.22123146,0.400126,-0.249547,11113957359,0.90750396,-9.781811,0.5577124,11113957359,0.00035724603,0.0008291593,-0.00010579615
11113967553,0.69315904,-0.22237815,-0.26926583,0.6305351,11113967553,0.22350858,0.40431774,-0.25048915,11113967553,0.90755033,-9.770197,0.5946504,11113967553,0.00063959975,-0.0006160941,-0.00053607696
11113977635,0.6931659,-0.22237416,-0.26926187,0.6305307,11113977635,0.2212911,0.40433064,-0.24933445,11113977635,0.93275803,-9.798391,0.60030663,11113977635,-0.00028461218,-0.00038192607,0.00012734998
11113987403,0.69316345,-0.22236757,-0.26926398,0.6305347,11113987403,0.21904147,0.40224105,-0.24711537,11113987403,0.9268744,-9.765818,0.593497,11113987403,-0.0005620029,0.00014076475,-0.00054897694
11113997521,0.6931643,-0.22236983,-0.26926234,0.63053375,11113997521,0.22235398,0.40117058,-0.2494859,11113997521,0.93241477,-9.770064,0.6067947,11113997521,-0.0009982781,-0.00023471471,0.0002659494
11114007411,0.6931701,-0.22236422,-0.26926416,0.6305286,11114007411,0.22128652,0.40433022,-0.2469932,11114007411,0.9190513,-9.76779,0.5648007,11114007411,-0.00023992173,5.2930787e-05,-0.00025940314
11114017404,0.6931701,-0.22236226,-0.26926246,0.63053,11114017404,0.22016399,0.40328562,-0.2470543,11114017404,0.92001617,-9.776966,0.6235987,11114017404,-0.0012298925,0.00078013726,-0.00049584336
11114027504,0.69317377,-0.22235645,-0.26925817,0.6305298,11114027504,0.22131401,0.4064323,-0.24571624,11114027504,0.8946862,-9.765192,0.6087086,11114027504,-0.000653944,0.0019513723,-0.00072763325
11114037397,0.69318175,-0.22235064,-0.269256,0.63052404,11114037397,0.22351891,0.40536842,-0.24809471,11114037397,0.93088335,-9.780854,0.58910084,11114037397,0.0004709037,0.00075078756,-0.0009405615
11114047632,0.69317734,-0.22234635,-0.26925474,0.63053095,11114047632,0.21911599,0.40749687,-0.24684967,11114047632,0.9215739,-9.793287,0.5633155,11114047632,-0.0013335655,0.0018553641,-0.0006831798
11114057429,0.6931821,-0.22234043,-0.26924977,0.6305299,11114057429,0.22131175,0.4064321,-0.24454564,11114057429,0.9315107,-9.775421,0.5986304,11114057429,-0.0003978992,0.0014114464,-0.0001398921
11114067361,0.69318336,-0.22232845,-0.26924714,0.6305338,11114067361,0.21905637,0.4032922,-0.24706227,11114067361,0.92958605,-9.794191,0.57797563,11114067361,-0.00028751977,-3.2520853e-05,-0.0003414068
11114077545,0.6931838,-0.22232725,-0.2692439,0.63053524,11114077545,0.22127616,0.40327948,-0.24938759,11114077545,0.90839195,-9.796457,0.5671427,11114077545,0.00058068894,-1.6584061e-05,0.00035110116
11114087402,0.6931807,-0.22232695,-0.2692439,0.63053876,11114087402,0.22019607,0.40538818,-0.24811862,11114087402,0.9161018,-9.788991,0.59531724,11114087402,-0.00026036147,0.0001079794,-0.00015433808
11114097405,0.6931841,-0.2223265,-0.26924,0.63053685,11114097405,0.22016399,0.40328562,-0.2470543,11114097405,0.91139185,-9.776217,0.5815953,11114097405,0.0004890831,0.00050499104,0.00024224957
11114107505,0.6931828,-0.22232606,-0.2692353,0.6305403,11114107505,0.22128879,0.4043304,-0.2481638,11114107505,0.9045841,-9.802206,0.5864481,11114107505,0.0006845454,0.0016052807,0.00037199073
11114117405,0.69318366,-0.22232246,-0.2692301,0.6305429,11114117405,0.21796137,0.40434974,-0.24584644,11114117405,0.9115994,-9.768051,0.592447,11114117405,-0.0004916722,0.00166074,8.644769e-05
11114127529,0.69318545,-0.22232102,-0.26922804,0.6305423,11114127529,0.22130369,0.4053816,-0.24811067,11114127529,0.91079736,-9.787923,0.58871585,11114127529,-6.183982e-05,5.492568e-05,-0.00012973277
11114137402,0.6931883,-0.22232077,-0.2692253,0.6305405,11114137402,0.22351663,0.40536818,-0.2469241,11114137402,0.91064495,-9.79744,0.60764277,11114137402,0.0003467342,0.00038336776,-0.00022610347
11114147553,0.6931872,-0.2223269,-0.26922184,0.630541,11114147553,0.2212693,0.40327883,-0.2458757,11114147553,0.8909343,-9.76343,0.54706484,11114147553,0.00019369088,-0.00038234983,0.0007785701
11114157469,0.69317824,-0.22232714,-0.26922587,0.6305491,11114157469,0.21908617,0.40539452,-0.24695596,11114157469,0.93693423,-9.763775,0.56224614,11114157469,-0.00069622695,0.0001860084,0.00032979855
11114167437,0.6931783,-0.22232288,-0.26923344,0.6305473,11114167437,0.2202213,0.40749004,-0.2456711,11114167437,0.9237914,-9.768168,0.5785249,11114167437,0.00025943108,-0.0010090815,-0.00061207754
11114177529,0.6931814,-0.22232808,-0.26923096,0.63054305,11114177529,0.22016399,0.40328562,-0.2470543,11114177529,0.9169551,-9.779907,0.6164615,11114177529,0.00043981522,-0.00018307101,-0.000121917576
11114187397,0.6931859,-0.22232391,-0.2692282,0.63054067,11114187397,0.22129911,0.40538117,-0.24576938,11114187397,0.9348014,-9.791393,0.62100035,11114187397,0.00017103646,0.00068271253,0.0005295372
11114197403,0.69318676,-0.22232005,-0.26922613,0.63054204,11114197403,0.22017433,0.40433636,-0.24465987,11114197403,0.9234537,-9.777872,0.5742871,11114197403,0.00032275263,-0.00031224452,-0.00025285315
11114207507,0.6931846,-0.22231892,-0.26922363,0.63054585,11114207507,0.22129911,0.40538117,-0.24576938,11114207507,0.8872504,-9.786874,0.54250944,11114207507,0.0005896017,1.1203811e-05,0.0012170163
11114217399,0.69318134,-0.22231491,-0.26922417,0.6305506,11114217399,0.22017433,0.40433636,-0.24465987,11114217399,0.9220053,-9.781137,0.58897936,11114217399,0.00014862884,-3.527198e-05,-0.0003716105
11114227395,0.69317687,-0.2223139,-0.2692217,0.63055694,11114227395,0.22128421,0.40433,-0.24582256,11114227395,0.89448637,-9.769773,0.60046625,11114227395,-0.000522051,-0.00037835818,0.00048941886
11114237714,0.6931758,-0.22231887,-0.26922226,0.6305561,11114237714,0.22349139,0.4032663,-0.24937166,11114237714,0.91888815,-9.81035,0.58949673,11114237714,0.00023363903,-0.00078692473,0.00044399314
11114247505,0.69317216,-0.22232124,-0.26922286,0.63055915,11114247505,0.22127387,0.40327924,-0.24821696,11114247505,0.91405517,-9.800231,0.6037668,11114247505,-0.000416209,-0.0010975702,-0.0006874348
11114257535,0.6931737,-0.22231993,-0.26921988,0.630559,11114257535,0.22239412,0.4043236,-0.24698521,11114257535,0.8968818,-9.777231,0.57120603,11114257535,-6.14021e-05,-0.00061029755,5.4565025e-05
11114267355,0.693173,-0.22232221,-0.26921776,0.63056,11114267355,0.22012386,0.4001326,-0.24955496,11114267355,0.89343494,-9.792555,0.56423175,11114267355,-0.0012168409,-0.0005479874,0.0007511107
11114277457,0.6931721,-0.22232914,-0.26921368,0.6305603,11114277457,0.22128421,0.40433,-0.24582256,11114277457,0.9123732,-9.786017,0.5939255,11114277457,0.00024651363,-0.00089174416,0.00015028915
11114287511,0.6931679,-0.22233081,-0.26921657,0.63056296,11114287511,0.2201789,0.4043368,-0.24700114,11114287511,0.899154,-9.792686,0.5829504,11114287511,-0.00046117418,0.00035870913,8.644769e-05
11114297408,0.69316417,-0.22234052,-0.26922318,0.630561,11114297408,0.21907356,0.40434358,-0.24817973,11114297408,0.90505284,-9.7819805,0.5606795,11114297408,-0.00012646336,-0.0007031467,-0.00083767273
11114307498,0.6931633,-0.22234894,-0.2692277,0.63055706,11114307498,0.21796367,0.40434998,-0.24701707,11114307498,0.8919525,-9.778648,0.5885961,11114307498,0.0006249184,-0.0001684269,-0.00026702438
11114317398,0.69317114,-0.2223507,-0.2692276,0.63054776,11114317398,0.22019607,0.40538818,-0.24811862,11114317398,0.92596424,-9.795643,0.6339913,11114317398,-5.212892e-05,-0.00011326559,-0.00087881763
11114327404,0.6931756,-0.22235225,-0.26922947,0.63054156,11114327404,0.22240902,0.40537477,-0.24693204,11114327404,0.9102742,-9.779118,0.5818754,11114327404,0.0009131683,0.0005933307,-0.00020329864
11114337506,0.6931725,-0.222352,-0.26923308,0.6305435,11114337506,0.2201766,0.40433657,-0.2458305,11114337506,0.9238954,-9.762832,0.5393262,11114337506,0.0009930404,-3.7275255e-05,-0.0005908534
11114347557,0.69317144,-0.22235718,-0.26923966,0.63053995,11114347557,0.22022587,0.40749046,-0.24801233,11114347557,0.92204875,-9.774582,0.62199825,11114347557,0.00023801252,-0.0018144799,0.00047286204
11114357355,0.69317424,-0.2223564,-0.26924393,0.6305354,11114357355,0.22129911,0.40538117,-0.24576938,11114357355,0.90901595,-9.763061,0.57281226,11114357355,4.501175e-05,-0.00052143633,-0.0006508881
11114367564,0.6931716,-0.22235665,-0.26924193,0.6305391,11114367564,0.21796367,0.40434998,-0.24701707,11114367564,0.93121487,-9.766054,0.5800908,11114367564,-0.00018300675,-0.00045252405,0.0003803447
11114377381,0.6931712,-0.2223542,-0.26924425,0.63053936,11114377381,0.22129911,0.40538117,-0.24576938,11114377381,0.9117135,-9.77995,0.5965583,11114377381,-0.00091623794,-0.0010331329,-0.00016389485
11114387543,0.69317305,-0.22235318,-0.26924142,0.63053894,11114387543,0.21905637,0.4032922,-0.24706227,11114387543,0.8978724,-9.794648,0.5924255,11114387543,0.00045565423,-7.860549e-05,0.00069666933
11114397400,0.69317544,-0.22235076,-0.26923817,0.6305386,11114397400,0.22128879,0.4043304,-0.2481638,11114397400,0.92659247,-9.765358,0.6244308,11114397400,0.00084726885,0.0001501441,-0.0009775141
11114407403,0.6931774,-0.22235247,-0.26923978,0.63053507,11114407403,0.21908846,0.40539476,-0.2481266,11114407403,0.89293355,-9.772352,0.54886556,11114407403,-0.001002376,0.00012597535,-0.00060423696
11114417501,0.6931725,-0.2223484,-0.26923874,0.6305423,11114417501,0.21911827,0.40749705,-0.24802032,11114417501,0.9156512,-9.806719,0.60972095,11114417501,-0.0009129727,0.0007955674,-0.00040586363
11114427401,0.6931786,-0.22234398,-0.2692293,0.6305412,11114427401,0.22017203,0.4043361,-0.24348925,11114427401,0.9089743,-9.796273,0.5821972,11114427401,-0.0006461404,0.0005644979,-0.00017495337
11114437618,0.69318277,-0.22233665,-0.26922697,0.6305402,11114437618,0.21902427,0.40118968,-0.2459979,11114437618,0.9202878,-9.781474,0.599878,11114437618,0.00063837226,0.00063927006,0.00014054659
11114447848,0.6931838,-0.22234304,-0.2692274,0.63053674,11114447848,0.22231503,0.3990674,-0.24490964,11114447848,0.89950895,-9.787115,0.58964944,11114447848,0.0012901379,-0.0014588684,0.00070402445
11114457428,0.6931808,-0.22234589,-0.2692231,0.63054085,11114457428,0.2245864,0.4022088,-0.25058743,11114457428,0.92400855,-9.802692,0.57879317,11114457428,0.00030593388,0.0007005194,0.00023066578
11114467474,0.6931823,-0.22234464,-0.26922256,0.6305398,11114467474,0.22127387,0.40327924,-0.24821696,11114467474,0.90563065,-9.789038,0.59538937,11114467474,0.00010291487,0.00090703834,-0.00046047452
11114477672,0.6931824,-0.22234283,-0.2692204,0.63054127,11114477672,0.22127616,0.40327948,-0.24938759,11114477672,0.898371,-9.798977,0.5658226,11114477672,8.277409e-05,0.0007162057,0.0005103336
11114487375,0.6931786,-0.22234534,-0.2692197,0.63054484,11114487375,0.22238378,0.4032729,-0.2493796,11114487375,0.932446,-9.787507,0.6143042,11114487375,-4.989747e-05,-0.00013614725,-0.00045661768
11114497557,0.69318324,-0.22234511,-0.26922336,0.63053817,11114497557,0.22126126,0.4022283,-0.24944073,11114497557,0.9257903,-9.774417,0.5836509,11114497557,0.00020223297,8.528773e-05,-1.750188e-05
11114507406,0.69317937,-0.22234763,-0.2692224,0.63054204,11114507406,0.22125897,0.40222812,-0.2482701,11114507406,0.9060389,-9.748539,0.5571623,11114507406,0.00071712956,0.0010511037,0.000102997525
11114517514,0.6931807,-0.22234601,-0.26921982,0.6305423,11114517514,0.22128195,0.40432978,-0.24465191,11114517514,0.89835304,-9.754937,0.6038641,11114517514,3.56175e-05,0.0002269242,0.0005827225
11114527403,0.6931871,-0.22234441,-0.2692113,0.6305394,11114527403,0.22242622,0.40642613,-0.24804956,11114527403,0.913537,-9.748922,0.6098107,11114527403,0.00043963827,-6.894488e-05,-0.00042530196
11114537394,0.6931907,-0.22233984,-0.26920673,0.630539,11114537394,0.22126701,0.40327862,-0.24470505,11114537394,0.90505266,-9.75193,0.557181,11114537394,0.00050921086,-0.00039450545,4.953076e-05
11114547661,0.6931906,-0.22233602,-0.26920447,0.6305415,11114547661,0.22014908,0.40223446,-0.2471074,11114547661,0.90292984,-9.753677,0.5947101,11114547661,0.00027876906,-0.00057606865,0.00040511903
11114557353,0.6931899,-0.22232915,-0.26920506,0.63054436,11114557353,0.22241129,0.405375,-0.2481027,11114557353,0.93063736,-9.788067,0.574914,11114557353,-0.00014523044,0.0005720146,0.00010445877
11114567429,0.6931864,-0.22233078,-0.26921254,0.6305445,11114567429,0.2179121,0.4011958,-0.2436646,11114567429,0.9412603,-9.780855,0.583432,11114567429,-9.5299445e-05,-2.9052608e-05,-0.0002989811
11114577480,0.69318366,-0.222335,-0.26922032,0.63054276,11114577480,0.22131632,0.40643254,-0.2468869,11114577480,0.89447606,-9.79802,0.6183886,11114577480,0.00072399527,0.00036263093,-0.00042071054
11114587424,0.6931865,-0.22233795,-0.26921964,0.63053876,11114587424,0.22131632,0.40643254,-0.2468869,11114587424,0.90134114,-9.770671,0.5856142,11114587424,-1.5031546e-05,0.0012517264,4.3951673e-05
11114597509,0.69318694,-0.2223395,-0.26922035,0.63053745,11114597509,0.2223964,0.40432385,-0.24815583,11114597509,0.9259673,-9.770962,0.5954473,11114597509,9.0440735e-06,-0.00097047817,-6.227987e-05
11114607396,0.6931886,-0.22234069,-0.26921993,0.63053536,11114607396,0.22016399,0.40328562,-0.2470543,11114607396,0.9256097,-9.7956505,0.5999335,11114607396,-0.00027500466,0.0005296059,0.000113735674
11114617403,0.6931933,-0.22234054,-0.26922113,0.63052976,11114617403,0.22127159,0.40327907,-0.2470463,11114617403,0.8791842,-9.802096,0.57857424,11114617403,0.00039766822,0.0008052299,-0.00024027005
11114627510,0.69319105,-0.22233443,-0.26921684,0.63053626,11114627510,0.22133121,0.4074837,-0.24683376,11114627510,0.89628935,-9.786683,0.60754615,11114627510,-0.000111473724,0.0012230882,-0.00038376753
11114637383,0.6931917,-0.22233294,-0.26921523,0.63053674,11114637383,0.2201938,0.40538794,-0.24694797,11114637383,0.9118041,-9.783987,0.5659102,11114637383,-0.00037044007,0.00022614561,0.0005271002
11114647615,0.6931957,-0.22233148,-0.26921597,0.63053256,11114647615,0.2213014,0.40538135,-0.24694003,11114647615,0.91481966,-9.773787,0.5769492,11114647615,0.0005951533,-0.0001244098,-0.000106583815
11114657417,0.69320107,-0.22232752,-0.26920864,0.6305312,11114657417,0.21910337,0.40644592,-0.24807346,11114657417,0.8948222,-9.768751,0.6042876,11114657417,-0.00022331346,0.00049978495,0.000350317
11114667353,0.69320345,-0.22232391,-0.2692055,0.63053113,11114667353,0.21797627,0.4054009,-0.2457933,11114667353,0.9414135,-9.760978,0.5765248,11114667353,0.00066555943,-0.00072942115,0.00080236583
11114677554,0.6932043,-0.22231936,-0.2692019,0.63053334,11114677554,0.22020641,0.4064389,-0.24572423,11114677554,0.9107814,-9.777805,0.5884489,11114677554,-1.5739352e-07,0.000912698,-0.00025076466
11114687362,0.69320625,-0.2223168,-0.26920033,0.63053274,11114687362,0.22239412,0.4043236,-0.24698521,11114687362,0.9006875,-9.747353,0.5878268,11114687362,2.5127083e-06,5.5134296e-06,-0.00063837063
11114697429,0.6932063,-0.22231704,-0.26919574,0.6305345,11114697429,0.2201789,0.4043368,-0.24700114,11114697429,0.913293,-9.747704,0.5868205,11114697429,-0.00030203257,0.0007151915,-0.00019413908
11114707498,0.69320786,-0.22231449,-0.26919794,0.63053286,11114707498,0.22125669,0.40222788,-0.24709944,11114707498,0.9541235,-9.783212,0.59616333,11114707498,-0.00013890956,-2.3510307e-05,0.0006348109
11114717387,0.6932059,-0.22231103,-0.26920593,0.6305328,11114717387,0.22126701,0.40327862,-0.24470505,11114717387,0.9226328,-9.776442,0.565416,11114717387,-0.00047700852,-0.0014566844,8.738437e-05
11114727506,0.69320154,-0.22231114,-0.2692154,0.6305336,11114727506,0.22126126,0.4022283,-0.24944073,11114727506,0.9057344,-9.792278,0.5599954,11114727506,0.00016704202,-0.001269171,-0.0011065989
11114737601,0.69319767,-0.22231047,-0.26921707,0.63053733,11114737601,0.22234713,0.40116996,-0.245974,11114737601,0.9249545,-9.768524,0.5840286,11114737601,3.287103e-05,-1.0644086e-05,0.00035119173
11114747544,0.6931975,-0.22231069,-0.2692113,0.63053983,11114747544,0.22127387,0.40327924,-0.24821696,11114747544,0.87766033,-9.776578,0.57072437,11114747544,0.00018999632,0.0004879497,0.0008569637
11114757462,0.6931917,-0.22231624,-0.2692117,0.6305441,11114757462,0.2223964,0.40432385,-0.24815583,11114757462,0.8928104,-9.762688,0.5934315,11114757462,-0.00079543516,-0.00053034164,0.00055391784
11114767433,0.69319636,-0.22232778,-0.26920974,0.6305357,11114767433,0.22018118,0.404337,-0.24817176,11114767433,0.8853692,-9.7936325,0.60362756,11114767433,0.0011827713,-0.00048342533,-0.00023195683
11114777476,0.69320107,-0.22233568,-0.26920813,0.6305285,11114777476,0.22014451,0.40223405,-0.24476615,11114777476,0.91576177,-9.786367,0.60160905,11114777476,0.00019357633,-0.00010553002,0.0014344836
11114787428,0.69320506,-0.22233629,-0.26920336,0.63052595,11114787428,0.22238147,0.40327266,-0.24820897,11114787428,0.9220431,-9.776852,0.602621,11114787428,0.0005749082,-0.00041869935,8.03913e-05
11114797363,0.6932101,-0.22233024,-0.26919743,0.630525,11114797363,0.22242622,0.40642613,-0.24804956,11114797363,0.9222745,-9.814577,0.59598005,11114797363,0.00095191225,0.00088528544,-0.0003646894
11114807541,0.6932071,-0.22232828,-0.26919523,0.63053,11114807541,0.22018118,0.404337,-0.24817176,11114807541,0.89584863,-9.809167,0.5891957,11114807541,-0.00043553952,0.00061220024,-0.00035402877
11114817383,0.69320863,-0.22232763,-0.26918823,0.6305315,11114817383,0.21798085,0.40540132,-0.24813455,11114817383,0.9023272,-9.804762,0.60809785,11114817383,2.6104972e-05,-0.0013157679,0.0002958402
11114827396,0.6932128,-0.22232358,-0.2691842,0.63053,11114827396,0.22242165,0.4064257,-0.24570827,11114827396,0.923328,-9.814873,0.58419085,11114827396,8.032657e-05,-0.0013440736,-0.0010093482
11114837643,0.6932125,-0.22232234,-0.26918736,0.6305294,11114837643,0.21799119,0.4064521,-0.24574016,11114837643,0.91523165,-9.784025,0.59243083,11114837643,-0.00019338634,-0.00039498974,-0.0010037742
11114847363,0.69320905,-0.22232163,-0.26919365,0.6305308,11114847363,0.2212693,0.40327883,-0.2458757,11114847363,0.9047159,-9.771933,0.57420564,11114847363,0.0001583863,-0.00046012457,2.0697247e-05
11114857529,0.69320345,-0.22232607,-0.26919487,0.6305349,11114857529,0.22128879,0.4043304,-0.2481638,11114857529,0.92955697,-9.771013,0.6109522,11114857529,-0.0005073333,-0.00031272694,0.0010508338
11114867357,0.69320595,-0.2223275,-0.26919472,0.6305317,11114867357,0.22460935,0.40431044,-0.24696927,11114867357,0.927247,-9.738656,0.5876055,11114867357,-0.0003735572,-0.0010732366,-0.00017866795
11114877433,0.6932053,-0.22232984,-0.2691971,0.6305306,11114877433,0.21794875,0.4032988,-0.24707021,11114877433,0.9175773,-9.785543,0.6031826,11114877433,0.00072501786,-0.001520169,-0.0003422855
11114887469,0.6932145,-0.22233313,-0.26919124,0.6305219,11114887469,0.22128195,0.40432978,-0.24465191,11114887469,0.9033153,-9.777937,0.5793057,11114887469,0.0006674547,-0.00067914743,-0.00029352866
11114897431,0.6932066,-0.22233285,-0.2691979,0.63052773,11114897431,0.22019607,0.40538818,-0.24811862,11114897431,0.89386535,-9.763188,0.5637649,11114897431,0.00029991474,-0.00091511384,-0.00010341802
11114907356,0.6932078,-0.22233342,-0.26920226,0.6305244,11114907356,0.22016168,0.4032854,-0.24588364,11114907356,0.92887545,-9.757707,0.56076187,11114907356,-0.0004222188,0.0004947921,-0.0007154634
11114917526,0.6932036,-0.22232948,-0.2692075,0.6305281,11114917526,0.22129911,0.40538117,-0.24576938,11114917526,0.9082271,-9.78887,0.6074474,11114917526,0.00015236158,-0.0007940093,-0.0010519868
11114927399,0.69320345,-0.22232826,-0.26921064,0.6305275,11114927399,0.2190816,0.4053941,-0.2446147,11114927399,0.9052615,-9.781504,0.58710945,11114927399,-0.0001671277,-0.0005963305,-0.00091745285
11114937826,0.6932048,-0.22232848,-0.2692068,0.63052744,11114937826,0.2212693,0.40327883,-0.2458757,11114937826,0.9164744,-9.760081,0.5814341,11114937826,-0.00018011406,-0.00038737338,-0.0004478856
11114947653,0.6932048,-0.22233076,-0.26920655,0.6305267,11114947653,0.2234765,0.40221515,-0.24942477,11114947653,0.90207726,-9.782,0.59110343,11114947653,0.00068018585,-0.00037275907,3.0552037e-06
11114957360,0.69321084,-0.22232836,-0.26919952,0.630524,11114957360,0.22013189,0.4011831,-0.24598993,11114957360,0.8944178,-9.799116,0.57892954,11114957360,0.0012132172,0.0014381781,-0.00012493692
11114967552,0.6932117,-0.22232641,-0.26920143,0.6305229,11114967552,0.21905865,0.40329245,-0.24823287,11114967552,0.90939504,-9.804117,0.58889,11114967552,0.0009940164,0.001450493,-0.000534995
11114977598,0.69321334,-0.22233309,-0.26920468,0.63051736,11114977598,0.2201766,0.40433657,-0.2458305,11114977598,0.9199959,-9.807674,0.582564,11114977598,0.0004264908,0.0004639607,0.0002554683
11114987553,0.69320846,-0.22233169,-0.26920733,0.6305221,11114987553,0.22123146,0.400126,-0.249547,11114987553,0.9065925,-9.778173,0.5746733,11114987553,-7.280242e-05,-0.00048124045,-0.00022125477
11114997371,0.6932115,-0.22233596,-0.26920217,0.6305194,11114997371,0.21905637,0.4032922,-0.24706227,11114997371,0.9118956,-9.791853,0.5913607,11114997371,0.00029400084,0.00039905496,-0.0002646274
11115007445,0.6932183,-0.22233734,-0.2691949,0.6305147,11115007445,0.22240098,0.4043243,-0.2504971,11115007445,0.89523906,-9.7781105,0.5853238,11115007445,-0.00024884567,0.0005434565,0.00014050538
11115017503,0.6932143,-0.22233894,-0.26918873,0.6305211,11115017503,0.22127159,0.40327907,-0.2470463,11115017503,0.9024194,-9.764407,0.60868907,11115017503,-0.00078679156,0.00046629738,0.00046636793
11115027400,0.6932122,-0.22234389,-0.26918745,0.63052213,11115027400,0.21575876,0.4054139,-0.24463858,11115027400,0.89734185,-9.802984,0.5711371,11115027400,-0.00046502892,-0.000876287,0.00042306446
11115037544,0.69320863,-0.22234315,-0.26919076,0.630525,11115037544,0.2201789,0.4043368,-0.24700114,11115037544,0.9022824,-9.77239,0.59666824,11115037544,0.00041010324,7.219985e-05,0.0003182185
11115047482,0.6932119,-0.22233918,-0.26918533,0.63052505,11115047482,0.21796137,0.40434974,-0.24584644,11115047482,0.9046934,-9.759236,0.60992867,11115047482,0.00012287218,0.0006062947,0.000765827
11115057444,0.69321084,-0.22233467,-0.26918286,0.63052887,11115057444,0.22020413,0.40643868,-0.24455358,11115057444,0.90984416,-9.779118,0.59490705,11115057444,-0.0012163762,0.00078403763,-0.0004015083
11115067471,0.69321424,-0.22233409,-0.26917756,0.6305276,11115067471,0.22128652,0.40433022,-0.2469932,11115067471,0.8920249,-9.789587,0.60657334,11115067471,0.0005483674,-0.00020673592,-2.5476329e-05
11115077444,0.6932129,-0.22233333,-0.26916978,0.6305326,11115077444,0.22130598,0.4053818,-0.24928129,11115077444,0.91633004,-9.790671,0.55527174,11115077444,-0.0005539572,0.0010047089,0.00032954547
11115087370,0.6932156,-0.22232884,-0.26916516,0.6305332,11115087370,0.22016399,0.40328562,-0.2470543,11115087370,0.906532,-9.768531,0.57932013,11115087370,-0.0006587533,0.0006763898,0.00024957792
11115097556,0.693215,-0.22232598,-0.26916835,0.63053364,11115097556,0.22130369,0.4053816,-0.24811067,11115097556,0.92078406,-9.772327,0.6062546,11115097556,-0.0001535574,-0.000555831,-0.0011571316
11115107360,0.6932089,-0.22233124,-0.26916975,0.63053775,11115107360,0.21907128,0.4043434,-0.24700913,11115107360,0.9114758,-9.7792425,0.58233815,11115107360,-0.00069939345,0.0010958947,0.00071785506
11115117543,0.69320583,-0.22233355,-0.26917526,0.630538,11115117543,0.22235973,0.40222088,-0.24475022,11115117543,0.91669214,-9.790895,0.5914052,11115117543,-0.0009451434,-0.00048003253,1.2610806e-05
11115127404,0.6932034,-0.22233318,-0.2691764,0.63054025,11115127404,0.22126701,0.40327862,-0.24470505,11115127404,0.903366,-9.77663,0.56213325,11115127404,-0.00025584735,-0.00079631153,-2.0080712e-05
11115137501,0.6931992,-0.22233337,-0.2691741,0.6305458,11115137501,0.21907128,0.4043434,-0.24700913,11115137501,0.9165888,-9.78417,0.5927293,11115137501,0.00034043938,0.00011208281,0.0015902452
11115147547,0.69320023,-0.22233833,-0.26916957,0.6305449,11115147547,0.2201789,0.4043368,-0.24700114,11115147547,0.90252376,-9.777429,0.56928676,11115147547,-0.00083722826,0.00052135624,0.0008082716
11115157362,0.69320136,-0.22233994,-0.26916313,0.6305459,11115157362,0.22020641,0.4064389,-0.24572423,11115157362,0.91366273,-9.793591,0.56273586,11115157362,0.0016513616,0.0011461759,0.00011394126
11115167438,0.6932008,-0.22233339,-0.26916024,0.63055,11115167438,0.22017203,0.4043361,-0.24348925,11115167438,0.9253774,-9.793638,0.56813383,11115167438,0.00025685597,-6.148033e-05,-6.366824e-05
11115177495,0.6932009,-0.22232845,-0.26915812,0.6305526,11115177495,0.22016625,0.40328586,-0.2482249,11115177495,0.926636,-9.770269,0.58684105,11115177495,-0.00023345556,-0.00017450564,5.198689e-05
11115187444,0.6932037,-0.22232015,-0.26915565,0.6305535,11115187444,0.22239412,0.4043236,-0.24698521,11115187444,0.9406227,-9.792374,0.60715884,11115187444,0.00025450066,0.0003857389,0.00019029644
11115197479,0.69320625,-0.22230837,-0.2691554,0.630555,11115197479,0.2201789,0.4043368,-0.24700114,11115197479,0.9341036,-9.776323,0.5708095,11115197479,0.00047377404,0.0014122957,5.429797e-05
11115207441,0.6932104,-0.22230892,-0.26915604,0.63054985,11115207441,0.21907356,0.40434358,-0.24817973,11115207441,0.9292528,-9.762753,0.58567375,11115207441,0.0002448121,-0.0003685588,-0.0001091382
11115217356,0.6932116,-0.22230673,-0.26916045,0.63054746,11115217356,0.22017433,0.40433636,-0.24465987,11115217356,0.91817224,-9.762152,0.5869605,11115217356,0.00018442981,-0.0002614446,-0.00043207593
11115227546,0.69321066,-0.22230802,-0.26916462,0.6305462,11115227546,0.22128421,0.40433,-0.24582256,11115227546,0.9292718,-9.764748,0.59363997,11115227546,0.00016308948,-0.0010321857,8.601509e-05
11115237755,0.69320583,-0.22230744,-0.26917103,0.630549,11115237755,0.22235398,0.40117058,-0.2494859,11115237755,0.9195014,-9.779835,0.5556951,11115237755,0.0004708143,0.00033383165,-0.000998819
11115247368,0.69320625,-0.22230826,-0.2691756,0.6305463,11115247368,0.22236659,0.40222153,-0.2482621,11115247368,0.9196243,-9.768788,0.59096175,11115247368,0.0017458955,0.00029809866,0.0015935032
11115257530,0.6932036,-0.22231326,-0.2691731,0.63054854,11115257530,0.22127387,0.40327924,-0.24821696,11115257530,0.92089844,-9.769913,0.55739844,11115257530,-0.00057548005,-0.00048768427,-0.00010070787
11115267350,0.6931959,-0.22231221,-0.2691777,0.6305555,11115267350,0.2223345,0.400119,-0.24719778,11115267350,0.89292264,-9.774543,0.56978995,11115267350,0.0005411608,0.000103375874,-0.0006815598
11115277546,0.69319105,-0.2223174,-0.2691798,0.6305581,11115277546,0.21909074,0.40539497,-0.24929722,11115277546,0.9168754,-9.767565,0.56266755,11115277546,-0.0005639922,-0.00071727205,-0.0005150386
11115287358,0.6931851,-0.22232611,-0.26918206,0.6305606,11115287358,0.22019838,0.40538839,-0.24928923,11115287358,0.9058323,-9.77962,0.5834966,11115287358,0.0006271396,-0.0010626512,1.2551434e-05
11115297429,0.6931903,-0.22233006,-0.269185,0.63055223,11115297429,0.22237921,0.40327248,-0.24703833,11115297429,0.9303713,-9.7853,0.61736965,11115297429,0.00063844025,-0.00046176743,-0.0007485389
11115307463,0.6931942,-0.22233449,-0.2691912,0.63054365,11115307463,0.2223643,0.4022213,-0.24709147,11115307463,0.927708,-9.794872,0.59104604,11115307463,0.000121479854,-0.0012569167,-0.000655398
11115317423,0.6931885,-0.2223335,-0.26919577,0.6305483,11115317423,0.21909879,0.40644547,-0.2457322,11115317423,0.9205343,-9.789412,0.56317556,11115317423,8.505955e-05,-0.0005211225,-0.00058593554
11115327501,0.69318324,-0.22233191,-0.26920342,0.63055134,11115327501,0.2201915,0.40538776,-0.24577734,11115327501,0.8942715,-9.7805,0.5623347,11115327501,0.00032962207,-0.0009564571,-0.00039659627
11115337496,0.6931835,-0.22233194,-0.2691997,0.63055277,11115337496,0.22020413,0.40643868,-0.24455358,11115337496,0.91068786,-9.796714,0.58967257,11115337496,0.00073442794,-0.00054547936,0.000155658
11115347430,0.6931837,-0.22233106,-0.2691937,0.63055533,11115347430,0.22017203,0.4043361,-0.24348925,11115347430,0.9028729,-9.789118,0.58555096,11115347430,0.00019134302,-0.0006115306,-0.00047863554
11115357460,0.6931858,-0.222328,-0.26918864,0.6305563,11115357460,0.2201915,0.40538776,-0.24577734,11115357460,0.9222344,-9.774593,0.58876157,11115357460,-0.0001544701,-0.00024298113,-0.00034256745
11115367430,0.6931861,-0.22233133,-0.2691859,0.6305559,11115367430,0.22019607,0.40538818,-0.24811862,11115367430,0.89180803,-9.785955,0.59847146,11115367430,0.0006764913,0.00017612707,-0.00020033354
11115377364,0.6931903,-0.22233748,-0.2691796,0.63055193,11115377364,0.22238147,0.40327266,-0.24820897,11115377364,0.911957,-9.775355,0.6193203,11115377364,0.0010067904,0.00090841576,0.0011472779
11115387533,0.6931983,-0.22234525,-0.2691786,0.63054067,11115387533,0.22016399,0.40328562,-0.2470543,11115387533,0.9139581,-9.774593,0.5893941,11115387533,0.0012632748,-0.0005491441,-1.7118407e-05
11115397357,0.6931946,-0.2223492,-0.2691862,0.63054013,11115397357,0.22014908,0.40223446,-0.2471074,11115397357,0.9180333,-9.764691,0.5777309,11115397357,0.00015264004,-0.00025477447,0.00051865866
11115407536,0.69319946,-0.22234693,-0.2691903,0.63053393,11115407536,0.21794645,0.40329862,-0.24589957,11115407536,0.9211452,-9.761253,0.6162817,11115407536,-0.00040358026,-0.00044165645,-0.00040744408
11115417353,0.69320744,-0.22234766,-0.26919037,0.63052475,11115417353,0.21905637,0.4032922,-0.24706227,11115417353,0.9259851,-9.763985,0.6412349,11115417353,0.0005632015,9.978749e-05,-0.00026623602
11115427430,0.6932106,-0.22235629,-0.26919004,0.63051844,11115427430,0.22019607,0.40538818,-0.24811862,11115427430,0.9287716,-9.772296,0.59615445,11115427430,0.00045395922,-0.0007793978,0.00086287386
11115437862,0.6932087,-0.22236091,-0.26919636,0.6305162,11115437862,0.22016625,0.40328586,-0.2482249,11115437862,0.90052474,-9.749426,0.6046455,11115437862,0.00046916958,-0.00026029348,0.00017545815
11115447578,0.69321084,-0.22236522,-0.26919463,0.6305131,11115447578,0.2234891,0.40326607,-0.24820103,11115447578,0.89585507,-9.743605,0.5875074,11115447578,-0.0001256261,-0.00054053124,-0.00067973067
11115457531,0.6932062,-0.22235963,-0.26919472,0.63052016,11115457531,0.22123949,0.4011765,-0.24598195,11115457531,0.9120264,-9.778525,0.5830566,11115457531,-0.0004030764,5.5416487e-05,0.0008637875
11115467353,0.69320303,-0.22235201,-0.2691985,0.63052464,11115467353,0.22126126,0.4022283,-0.24944073,11115467353,0.9427815,-9.777967,0.6314763,11115467353,-0.0008045994,0.00023198873,-0.000831292
11115477668,0.69320565,-0.22235133,-0.2691957,0.6305232,11115477668,0.2234593,0.4011638,-0.2483073,11115477668,0.890183,-9.791727,0.6093029,11115477668,-0.00019968674,0.0012552924,-0.00015421724
11115487476,0.6932062,-0.2223552,-0.26919577,0.63052124,11115487476,0.22019838,0.40538839,-0.24928923,11115487476,0.9237013,-9.759306,0.5904601,11115487476,-0.00013955776,-0.0002570385,-0.00022202218
11115497432,0.69320893,-0.22235507,-0.2691992,0.6305168,11115497432,0.22346617,0.40116444,-0.2518192,11115497432,0.9173711,-9.795897,0.59321874,11115497432,-0.0006855419,0.0005576154,-7.019704e-05
11115507358,0.6932037,-0.22235705,-0.26920182,0.6305207,11115507358,0.2213014,0.40538135,-0.24694003,11115507358,0.8965576,-9.796625,0.5595509,11115507358,-0.00072108675,-0.00030967314,-0.00056547695
11115517531,0.69319993,-0.2223593,-0.26920345,0.6305233,11115517531,0.21908389,0.40539432,-0.24578531,11115517531,0.895769,-9.776631,0.56773305,11115517531,-0.00056713354,0.00059749745,-0.00029871194
11115527357,0.69319975,-0.22235955,-0.26919922,0.6305253,11115527357,0.22129911,0.40538117,-0.24576938,11115527357,0.9045967,-9.780396,0.6070508,11115527357,0.0006016921,0.00029267278,0.0010419418
11115537637,0.6932025,-0.22235627,-0.26919028,0.6305272,11115537637,0.2202236,0.40749028,-0.2468417,11115537637,0.9083907,-9.770301,0.6063796,11115537637,5.5036508e-05,0.0010590283,0.0008413072
11115547437,0.69320756,-0.22235021,-0.2691875,0.63052505,11115547437,0.22021098,0.40643933,-0.24806549,11115547437,0.8973994,-9.790665,0.58089197,11115547437,0.00017035566,0.0012160307,-0.00047845393
11115557350,0.69320583,-0.22234665,-0.26918653,0.6305286,11115557350,0.2191011,0.40644568,-0.24690282,11115557350,0.91800225,-9.787333,0.5730431,11115557350,-5.43613e-05,0.0011883192,-0.0003290684
11115567541,0.6932121,-0.22233549,-0.26918116,0.630528,11115567541,0.21905637,0.4032922,-0.24706227,11115567541,0.91436625,-9.779275,0.6361762,11115567541,-0.00013718661,0.0017169164,-0.0007698056
11115577365,0.69321966,-0.22233155,-0.2691735,0.6305242,11115577365,0.2223769,0.40327224,-0.24586771,11115577365,0.91635436,-9.749965,0.58721185,11115577365,0.0005066525,0.00013360009,9.444612e-05
11115587533,0.6932185,-0.22232494,-0.2691694,0.63052964,11115587533,0.2201789,0.4043368,-0.24700114,11115587533,0.9305097,-9.779398,0.5576178,11115587533,-0.00046819635,0.0010583661,0.0005585572
11115597369,0.6932167,-0.2223209,-0.26917428,0.6305309,11115597369,0.21907814,0.40434405,-0.250521,11115597369,0.9343023,-9.75646,0.60440385,11115597369,0.00023678876,-0.000528818,-0.0008627153
11115607437,0.693215,-0.22231694,-0.26918158,0.63053113,11115607437,0.22016399,0.40328562,-0.2470543,11115607437,0.92247355,-9.743819,0.5971521,11115607437,-0.00032012258,-0.00084726885,-0.0005653342
11115617473,0.6932126,-0.22231805,-0.26918548,0.63053167,11115617473,0.21908389,0.40539432,-0.24578531,11115617473,0.8970592,-9.76001,0.60422444,11115617473,-0.0007849196,-0.0010983218,0.00040153135
11115627423,0.6932195,-0.22231434,-0.26917788,0.6305287,11115627423,0.2223964,0.40432385,-0.24815583,11115627423,0.9040351,-9.763932,0.5918736,11115627423,0.0006966032,-0.0004419824,-0.0007553296
11115637499,0.6932217,-0.22231235,-0.26917276,0.63052905,11115637499,0.21905407,0.403292,-0.24589163,11115637499,0.9095191,-9.760074,0.6173662,11115637499,-0.00048195664,-0.00075634103,-0.0004054308
11115647507,0.6932208,-0.22230561,-0.2691777,0.63053036,11115647507,0.22242165,0.4064257,-0.24570827,11115647507,0.93397164,-9.755567,0.5451042,11115647507,0.00016034581,0.00034834072,-0.0006384393
11115657423,0.6932209,-0.22230141,-0.2691769,0.630532,11115657423,0.21908389,0.40539432,-0.24578531,11115657423,0.89401585,-9.788644,0.59021413,11115657423,0.0006725658,0.0011377959,-0.00071016024
11115667460,0.69322836,-0.22229676,-0.26917362,0.63052696,11115667460,0.2212544,0.40222767,-0.24592884,11115667460,0.91390574,-9.782438,0.623904,11115667460,0.0011133943,-0.00011134427,-0.0010999407
11115677448,0.6932323,-0.22229373,-0.26916927,0.6305256,11115677448,0.2223494,0.40117013,-0.24714464,11115677448,0.9136809,-9.824093,0.60209423,11115677448,-0.00054042693,0.0009256378,0.0003958349
11115687358,0.69323033,-0.22229983,-0.2691705,0.6305251,11115687358,0.22016625,0.40328586,-0.2482249,11115687358,0.9053365,-9.790789,0.56693494,11115687358,0.00030501932,-0.0011812486,0.001085494
11115697550,0.69322425,-0.22230464,-0.2691811,0.6305255,11115697550,0.22013876,0.40118375,-0.24950182,11115697550,0.9109781,-9.785909,0.57166225,11115697550,-3.7942082e-06,-0.0008231895,-0.000101697864
11115707359,0.6932184,-0.22230977,-0.26918903,0.6305268,11115707359,0.22124638,0.40117717,-0.24949384,11115707359,0.93272966,-9.791508,0.5453503,11115707359,-0.000396532,-0.0011559064,0.0011852647
11115717440,0.69320935,-0.2223128,-0.26919106,0.6305348,11115717440,0.21905865,0.40329245,-0.24823287,11115717440,0.87628603,-9.812108,0.5527594,11115717440,-0.00038869493,0.00018661283,-0.0003272565
11115727475,0.69320375,-0.22231308,-0.26919022,0.6305412,11115727475,0.22459671,0.4032595,-0.24819304,11115727475,0.93013227,-9.7530575,0.58026093,11115727475,0.0003203014,0.00029420666,-0.00011752639
11115737758,0.6931987,-0.22231057,-0.26918805,0.6305485,11115737758,0.22348453,0.40326566,-0.24585977,11115737758,0.92596704,-9.779481,0.5738008,11115737758,-0.00047985092,-0.00047093444,0.0010108924
11115747544,0.6931949,-0.22231174,-0.26918733,0.63055253,11115747544,0.22236659,0.40222153,-0.2482621,11115747544,0.892446,-9.7774,0.5784129,11115747544,-0.0005086493,-0.00044163037,0.00031645223
11115757357,0.6931918,-0.22231963,-0.269189,0.6305524,11115757357,0.22236888,0.4022217,-0.24943276,11115757357,0.90629286,-9.769129,0.5802697,11115757357,0.0006285282,-0.00049817935,0.0004012012
11115767433,0.69319075,-0.2223274,-0.26919147,0.63054985,11115767433,0.22461163,0.40431067,-0.2481399,11115767433,0.9118567,-9.762104,0.5782473,11115767433,0.001143625,-0.00014421344,0.000573013
11115777485,0.6931848,-0.22232956,-0.2691957,0.6305539,11115777485,0.22018348,0.40433723,-0.2493424,11115777485,0.89922607,-9.773126,0.56316733,11115777485,0.00011511799,-0.0014292682,-0.00043614954
11115787430,0.69318235,-0.22232544,-0.26919988,0.6305562,11115787430,0.2201766,0.40433657,-0.2458305,11115787430,0.9416356,-9.784739,0.5702494,11115787430,4.958175e-05,-0.001011828,-0.00013975822
11115797475,0.6931855,-0.2223226,-0.26920512,0.6305515,11115797475,0.21908389,0.40539432,-0.24578531,11115797475,0.9362067,-9.758753,0.58629155,11115797475,0.00021090917,-0.00022586901,-0.00024248823
11115807438,0.69318426,-0.22232452,-0.2692045,0.63055235,11115807438,0.22128421,0.40433,-0.24582256,11115807438,0.9103706,-9.776555,0.6096669,11115807438,-0.0010477668,-0.001007677,0.0002669529
11115817353,0.69318455,-0.2223276,-0.2692077,0.63054967,11115817353,0.21794645,0.40329862,-0.24589957,11115817353,0.90412307,-9.783045,0.6021451,11115817353,0.00072397105,-0.0007364992,0.001150189
11115827539,0.693193,-0.22232926,-0.26920587,0.6305406,11115827539,0.2201915,0.40538776,-0.24577734,11115827539,0.9131355,-9.777547,0.64453983,11115827539,0.0016281735,0.00017326325,-0.00027512643
11115837493,0.6931932,-0.22233196,-0.26920864,0.6305383,11115837493,0.21907128,0.4043434,-0.24700913,11115837493,0.9170559,-9.795296,0.58913404,11115837493,0.000100974925,-0.0009943098,-4.924601e-05
11115847401,0.69318676,-0.22233072,-0.2692134,0.63054365,11115847401,0.22129683,0.40538093,-0.24459878,11115847401,0.9226166,-9.789719,0.57075757,11115847401,-0.00010001846,-0.00020571053,9.9421246e-05
11115857533,0.69318414,-0.22233175,-0.26921245,0.6305467,11115857533,0.22017433,0.40433636,-0.24465987,11115857533,0.91613454,-9.833267,0.5759877,11115857533,6.956048e-05,0.00013564434,8.479506e-05
11115867372,0.6931861,-0.22233404,-0.2692179,0.6305414,11115867372,0.22127159,0.40327907,-0.2470463,11115867372,0.9079742,-9.773277,0.61247194,11115867372,0.00014332496,-0.0011677733,0.00047160056
11115877557,0.6931896,-0.22233629,-0.26921427,0.6305383,11115877557,0.2191011,0.40644568,-0.24690282,11115877557,0.9163848,-9.791723,0.6069205,11115877557,0.00024090521,0.00039944611,-7.752259e-05
11115887361,0.6931881,-0.22234382,-0.26921487,0.63053703,11115887361,0.21908846,0.40539476,-0.2481266,11115887361,0.8985358,-9.799471,0.5734503,11115887361,-0.00016678404,-2.1387823e-05,0.00013948185
11115897432,0.69318867,-0.22234371,-0.26921037,0.63053834,11115897432,0.22016625,0.40328586,-0.2482249,11115897432,0.922237,-9.797683,0.59538627,11115897432,0.0008241823,0.00014725048,0.00026701624
11115907464,0.693194,-0.22234412,-0.26920193,0.63053596,11115907464,0.22240902,0.40537477,-0.24693204,11115907464,0.8971255,-9.797871,0.5840359,11115907464,-0.0008694837,0.0003026314,-0.000260883
11115917418,0.6931937,-0.22234985,-0.2691968,0.6305364,11115917418,0.21688588,0.40645885,-0.24691875,11115917418,0.9110008,-9.793224,0.5737708,11115917418,0.00084441435,-0.000553838,0.0015772136
11115927478,0.6931915,-0.22234829,-0.26919112,0.6305418,11115927478,0.22241129,0.405375,-0.2481027,11115927478,0.9140842,-9.783546,0.5897136,11115927478,0.00041752588,0.00047300197,-0.00011107535
11115937750,0.693193,-0.22234628,-0.26919028,0.63054127,11115937750,0.22125669,0.40222788,-0.24709944,11115937750,0.890409,-9.7876835,0.608423,11115937750,-3.945548e-05,0.0006650789,-0.00053079287
11115947616,0.6931988,-0.2223504,-0.2691827,0.63053656,11115947616,0.22127616,0.40327948,-0.24938759,11115947616,0.90124226,-9.764601,0.59511226,11115947616,0.00091251545,0.0011206744,0.0005198873
11115957510,0.69319147,-0.22234507,-0.26918983,0.6305435,11115957510,0.22348681,0.4032659,-0.24703038,11115957510,0.91573375,-9.76008,0.5949979,11115957510,-0.0012916317,0.0001529092,-0.00028046267
11115967429,0.69319403,-0.22234032,-0.26919243,0.6305412,11115967429,0.22241129,0.405375,-0.2481027,11115967429,0.9392828,-9.774184,0.5411253,11115967429,-0.00146598,0.00061075203,0.0005919649
11115977593,0.693191,-0.22233473,-0.26919305,0.6305464,11115977593,0.22015366,0.4022349,-0.24944869,11115977593,0.8913053,-9.805396,0.6093587,11115977593,-8.8299625e-05,-0.00064856745,-0.0010342321
11115987541,0.6931932,-0.2223308,-0.26918638,0.6305481,11115987541,0.22233677,0.4001192,-0.2483684,11115987541,0.91301,-9.770374,0.58153206,11115987541,0.0009574741,0.00071880035,-0.00012960238
11115997363,0.6931986,-0.22233129,-0.26917955,0.6305449,11115997363,0.22014908,0.40223446,-0.2471074,11115997363,0.9079844,-9.789418,0.57831156,11115997363,0.00034259912,0.001170679,0.0010706952
11116007543,0.69319946,-0.22233254,-0.26918238,0.63054234,11116007543,0.21905407,0.403292,-0.24589163,11116007543,0.8889562,-9.788672,0.59959656,11116007543,-0.0001572119,0.00029732194,-0.00011944771
11116017351,0.693196,-0.22234087,-0.26917505,0.6305463,11116017351,0.2201938,0.40538794,-0.24694797,11116017351,0.8958751,-9.789493,0.561638,11116017351,0.0011029588,2.27876e-05,0.00083754025
11116027421,0.6931942,-0.22234018,-0.2691719,0.63054985,11116027421,0.21909879,0.40644547,-0.2457322,11116027421,0.9135121,-9.796595,0.58252895,11116027421,8.948613e-05,-0.0007004468,-0.00022343174
11116037602,0.69319624,-0.2223392,-0.26916474,0.63055104,11116037602,0.21797627,0.4054009,-0.2457933,11116037602,0.8975419,-9.790193,0.5753546,11116037602,7.6378696e-05,0.0008865604,-0.0002924637
11116047396,0.6931928,-0.22234069,-0.26915574,0.63055825,11116047396,0.2201789,0.4043368,-0.24700114,11116047396,0.9150283,-9.803827,0.59021807,11116047396,0.00040798262,0.0004325062,0.00017583207
11116057389,0.69319236,-0.22233115,-0.26915053,0.6305642,11116057389,0.22128195,0.40432978,-0.24465191,11116057389,0.90292597,-9.794459,0.60498387,11116057389,0.000460973,0.0014008349,-0.00073546777
11116067504,0.69319296,-0.22233155,-0.26914755,0.63056475,11116067504,0.21799348,0.40645227,-0.24691077,11116067504,0.9111284,-9.782886,0.5754014,11116067504,-0.0005972488,-5.3226948e-05,0.0013635161
11116077432,0.6931978,-0.2223325,-0.2691476,0.630559,11116077432,0.2201915,0.40538776,-0.24577734,11116077432,0.9231596,-9.781521,0.6101105,11116077432,0.00089190435,0.0003671255,-0.000528269
11116087464,0.6931978,-0.22232714,-0.26914886,0.6305604,11116087464,0.22240672,0.40537456,-0.24576141,11116087464,0.8884134,-9.801819,0.5700147,11116087464,0.00020141527,0.00046222378,0.00024291384
11116097433,0.69319767,-0.22231998,-0.26914424,0.6305651,11116097433,0.2201789,0.4043368,-0.24700114,11116097433,0.9034867,-9.7905,0.59603995,11116097433,-0.00018148962,-0.00021466333,-0.0007793964
11116107349,0.6931984,-0.22231954,-0.26914132,0.63056564,11116107349,0.22237463,0.40327203,-0.24469708,11116107349,0.9284092,-9.761747,0.5898926,11116107349,0.00018823426,0.0005102167,-0.00017765327
11116117545,0.69319737,-0.22231312,-0.26914704,0.63056666,11116117545,0.2201766,0.40433657,-0.2458305,11116117545,0.91614646,-9.775672,0.58008075,11116117545,-0.00068791024,0.00083685387,-0.00025807624
11116127367,0.6931944,-0.22231326,-0.2691512,0.63056815,11116127367,0.22131632,0.40643254,-0.2468869,11116127367,0.935496,-9.785847,0.56656384,11116127367,0.00054519344,7.088296e-05,-2.4726614e-05
11116137644,0.69319475,-0.22231027,-0.2691554,0.63056684,11116137644,0.21907356,0.40434358,-0.24817973,11116137644,0.9144105,-9.749255,0.57833767,11116137644,4.0745363e-06,5.012378e-06,0.00020683091
11116147398,0.69319165,-0.22230805,-0.269153,0.6305721,11116147398,0.21909422,0.40644503,-0.24339092,11116147398,0.9087903,-9.76742,0.5390301,11116147398,0.00046884269,-0.0003782604,0.0003500199
11116157388,0.6931901,-0.22230415,-0.26915422,0.63057464,11116157388,0.21907356,0.40434358,-0.24817973,11116157388,0.9153633,-9.778936,0.5956522,11116157388,-0.0005492829,-0.00034812465,0.00033148495
11116167542,0.69318676,-0.22231041,-0.26915142,0.63057727,11116167542,0.21796367,0.40434998,-0.24701707,11116167542,0.91160655,-9.780579,0.61414963,11116167542,-0.0004893299,0.00039945077,0.0006971124
11116177375,0.6931842,-0.22231627,-0.26915833,0.6305751,11116177375,0.22018118,0.404337,-0.24817176,11116177375,0.92659694,-9.780483,0.563801,11116177375,0.0005061608,-9.64487e-05,0.00019437214
11116187431,0.69318104,-0.2223238,-0.26916045,0.63057506,11116187431,0.2213014,0.40538135,-0.24694003,11116187431,0.9000676,-9.751003,0.61248267,11116187431,0.0003034575,-0.0008787401,-0.0002886688
11116197469,0.69318324,-0.2223285,-0.2691623,0.63057023,11116197469,0.22127387,0.40327924,-0.24821696,11116197469,0.9257356,-9.779626,0.56456685,11116197469,-0.00041067414,-0.00083762594,0.00026129978
11116207432,0.69317305,-0.22233406,-0.26916885,0.6305766,11116207432,0.22130369,0.4053816,-0.24811067,11116207432,0.90456486,-9.791144,0.5694244,11116207432,-0.0002663359,-0.0017444873,-0.0001788477
11116217461,0.69316626,-0.22233492,-0.26917273,0.6305821,11116217461,0.21794645,0.40329862,-0.24589957,11116217461,0.90902334,-9.801257,0.5697839,11116217461,-0.00070047285,-0.0019290121,0.00030656625
11116227430,0.69315934,-0.2223377,-0.26917443,0.630588,11116227430,0.22128652,0.40433022,-0.2469932,11116227430,0.91214263,-9.801661,0.5590921,11116227430,0.00017650705,-0.0011178032,0.00015077414
11116237719,0.6931608,-0.22234027,-0.26917756,0.63058424,11116237719,0.22125897,0.40222812,-0.2482701,11116237719,0.91464025,-9.806601,0.5937933,11116237719,0.0003619641,-0.0002455609,0.00032527465
11116247509,0.69315696,-0.22234452,-0.2691765,0.63058734,11116247509,0.21906322,0.40329292,-0.25057417,11116247509,0.9136496,-9.789469,0.59598166,11116247509,-0.00064328033,-0.00020600669,0.00041254703
11116257388,0.6931633,-0.22233911,-0.2691773,0.630582,11116257388,0.22238605,0.40327314,-0.2505502,11116257388,0.9207937,-9.79274,0.59659076,11116257388,0.00031485222,0.0006647436,-0.0009608362
11116267510,0.6931637,-0.22234285,-0.2691749,0.6305812,11116267510,0.22235398,0.40117058,-0.2494859,11116267510,0.923639,-9.77589,0.6148745,11116267510,0.00023946166,-0.00013844855,-0.0003830304
11116277454,0.6931698,-0.22234417,-0.26917514,0.6305739,11116277454,0.21906899,0.40434316,-0.24583848,11116277454,0.9373559,-9.78672,0.6217711,11116277454,-4.4161454e-05,-0.00044585764,0.0009559789
11116287375,0.6931682,-0.22234325,-0.26917392,0.63057643,11116287375,0.2213014,0.40538135,-0.24694003,11116287375,0.8937149,-9.787515,0.57422465,11116287375,0.0003248183,-0.00077275466,0.0002441923
11116297550,0.69317126,-0.22234188,-0.26917323,0.6305739,11116297550,0.22016399,0.40328562,-0.2470543,11116297550,0.93164927,-9.746857,0.60731983,11116297550,-0.00025602616,0.0004374003,0.000816185
11116307355,0.6931733,-0.22234446,-0.2691761,0.6305696,11116307355,0.22016625,0.40328586,-0.2482249,11116307355,0.9082636,-9.786547,0.61948144,11116307355,-0.0004042061,0.0002526166,0.0012254023
11116317429,0.69317764,-0.22234343,-0.2691761,0.6305651,11116317429,0.21905865,0.40329245,-0.24823287,11116317429,0.91756296,-9.757378,0.6143676,11116317429,-0.00076422654,-0.0003910698,0.0010310919
11116327627,0.69317913,-0.2223373,-0.26917017,0.6305683,11116327627,0.22238955,0.4043232,-0.24464394,11116327627,0.933244,-9.777519,0.56357765,11116327627,-0.00079197716,0.00053378474,7.771095e-05
11116337396,0.6931787,-0.22233383,-0.26916412,0.63057244,11116337396,0.22012961,0.4011829,-0.24481928,11116337396,0.9073936,-9.77853,0.58212876,11116337396,-8.175615e-05,0.0013473369,0.00043378328
11116347514,0.6931802,-0.22233613,-0.26916093,0.6305714,11116347514,0.223504,0.40431726,-0.24814788,11116347514,0.9063769,-9.781073,0.6155927,11116347514,0.00023574103,0.0008498393,-0.0008396276
11116357397,0.6931783,-0.22233352,-0.2691644,0.63057286,11116357397,0.22129911,0.40538117,-0.24576938,11116357397,0.9207027,-9.772336,0.55533683,11116357397,0.0003853161,-9.6940435e-05,-0.00035179593
