accelerationTimestamp,accelerationX,accelerationY,accelerationZ,angularSpeedTimestamp,angularSpeedX,angularSpeedY,angularSpeedZ,temperatureTimestamp,temperature
11195657675,-1.1581261,-9.934999,0.19142582,11195657675,0.0012217305,-0.007330383,0.002443461,11195657675,49.984375
11195659471,-1.1150553,-9.958928,0.2009971,11195659471,0.0012217305,-0.004886922,0.0036651916,11195659471,49.984375
11195661710,-1.1389836,-9.954143,0.23449662,11195661710,0.0012217305,-0.0036651916,0.0036651916,11195661710,49.984375
11195663949,-1.1294123,-9.958928,0.18185452,11195663949,0.0012217305,-0.007330383,0.002443461,11195663949,49.984375
11195666188,-1.1294123,-9.963714,0.21535404,11195666188,0.002443461,-0.004886922,0.002443461,11195666188,49.984375
11195668425,-1.134198,-9.963714,0.22492532,11195668425,0.0012217305,-0.0036651916,0.0036651916,11195668425,49.984375
11195670664,-1.1246266,-9.939785,0.2440679,11195670664,0.0012217305,-0.007330383,0.0036651916,11195670664,49.984375
11195672903,-1.1294123,-9.968499,0.20578274,11195672903,0.002443461,-0.002443461,0.0036651916,11195672903,49.953125
11195675142,-1.1533405,-9.934999,0.21535404,11195675142,0.0036651916,-0.004886922,0.0036651916,11195675142,49.953125
11195677678,-1.105484,-9.987641,0.22971097,11195677678,0.002443461,-0.0061086523,0.0036651916,11195677678,49.953125
11195679637,-1.1533405,-9.958928,0.21535404,11195679637,0.002443461,-0.009773844,0.004886922,11195679637,49.953125
11195681876,-1.1389836,-9.944571,0.2105684,11195681876,0.002443461,-0.0036651916,0.002443461,11195681876,49.953125
11195684115,-1.134198,-9.954143,0.2009971,11195684115,0.0036651916,-0.004886922,0.002443461,11195684115,49.953125
11195686354,-1.1246266,-9.954143,0.22492532,11195686354,0.002443461,-0.007330383,0.0036651916,11195686354,49.953125
11195688594,-1.134198,-9.968499,0.2440679,11195688594,0.0012217305,-0.002443461,0.0012217305,11195688594,49.953125
11195690833,-1.1389836,-9.973285,0.2105684,11195690833,0.002443461,-0.002443461,0.002443461,11195690833,49.953125
11195693072,-1.1581261,-9.944571,0.22492532,11195693072,0.0012217305,-0.0061086523,0.002443461,11195693072,49.953125
11195695310,-1.1437693,-9.982856,0.22971097,11195695310,0.002443461,-0.002443461,0.0036651916,11195695310,49.953125
11195697678,-1.1485549,-9.954143,0.2440679,11195697678,0.002443461,-0.002443461,0.0012217305,11195697678,49.953125
11195699801,-1.1437693,-9.963714,0.2440679,11195699801,0.002443461,-0.0036651916,0.002443461,11195699801,49.953125
11195702040,-1.1294123,-9.968499,0.22013968,11195702040,0.0012217305,-0.007330383,0.002443461,11195702040,49.953125
11195704278,-1.134198,-9.954143,0.22971097,11195704278,0.0012217305,-0.0061086523,0.002443461,11195704278,49.953125
11195706517,-1.1581261,-9.963714,0.2440679,11195706517,-0.0012217305,-0.004886922,0.002443461,11195706517,49.953125
11195708746,-1.1485549,-9.934999,0.21535404,11195708746,0,-0.008552114,0.0036651916,11195708746,49.945312
11195710985,-1.1533405,-9.958928,0.22971097,11195710985,0.0012217305,-0.008552114,0.002443461,11195710985,49.945312
11195713224,-1.1533405,-9.963714,0.21535404,11195713224,0.0036651916,-0.004886922,0.002443461,11195713224,49.945312
11195715462,-1.1389836,-9.958928,0.2105684,11195715462,0.002443461,-0.004886922,0.002443461,11195715462,49.945312
11195717725,-1.134198,-9.968499,0.21535404,11195717725,0.002443461,-0.0061086523,0.0036651916,11195717725,49.945312
11195719964,-1.134198,-9.963714,0.22971097,11195719964,-0.0012217305,-0.0061086523,0.002443461,11195719964,49.945312
11195722203,-1.1485549,-9.954143,0.2105684,11195722203,0.004886922,-0.0061086523,0.002443461,11195722203,49.945312
11195724442,-1.1485549,-9.954143,0.22013968,11195724442,0.002443461,-0.004886922,0.0036651916,11195724442,49.945312
11195726680,-1.1485549,-9.958928,0.22013968,11195726680,0.0012217305,-0.0061086523,0.002443461,11195726680,49.933594
11195728932,-1.119841,-9.954143,0.23449662,11195728932,0,-0.0036651916,0.0036651916,11195728932,49.933594
11195731171,-1.1485549,-9.949356,0.19621146,11195731171,0.0012217305,-0.0061086523,0.002443461,11195731171,49.933594
11195733410,-1.1437693,-9.968499,0.22013968,11195733410,0.002443461,-0.0061086523,0.002443461,11195733410,49.933594
11195735649,-1.1581261,-9.954143,0.22013968,11195735649,0.004886922,-0.0061086523,0.002443461,11195735649,49.933594
11195737879,-1.1389836,-9.963714,0.21535404,11195737879,0.002443461,-0.0061086523,0.0036651916,11195737879,49.933594
11195740118,-1.1485549,-9.968499,0.20578274,11195740118,0.0012217305,-0.002443461,0.0036651916,11195740118,49.933594
11195742356,-1.1533405,-9.949356,0.22013968,11195742356,0.0012217305,-0.002443461,0.002443461,11195742356,49.933594
11195744595,-1.1533405,-9.954143,0.2105684,11195744595,0,-0.0036651916,0.002443461,11195744595,49.992188
11195746834,-1.134198,-9.968499,0.21535404,11195746834,0.002443461,-0.007330383,0.0012217305,11195746834,49.992188
11195749094,-1.1246266,-9.958928,0.22013968,11195749094,0.002443461,-0.002443461,0.0036651916,11195749094,49.992188
11195751333,-1.134198,-9.963714,0.22013968,11195751333,0.0036651916,-0.004886922,0.0036651916,11195751333,49.992188
11195753572,-1.1294123,-9.934999,0.23449662,11195753572,0.002443461,-0.007330383,0.0036651916,11195753572,49.992188
11195755811,-1.1150553,-9.954143,0.22492532,11195755811,0.002443461,-0.007330383,0.0036651916,11195755811,49.992188
11195758062,-1.1246266,-9.963714,0.24885355,11195758062,0.0036651916,-0.004886922,0.002443461,11195758062,49.992188
11195760301,-1.1150553,-9.97807,0.23449662,11195760301,0.004886922,-0.004886922,0.002443461,11195760301,49.992188
11195762540,-1.119841,-9.958928,0.22492532,11195762540,0.0012217305,-0.0061086523,0.004886922,11195762540,49.96875
11195764779,-1.119841,-9.949356,0.2105684,11195764779,0.0012217305,-0.007330383,0.002443461,11195764779,49.96875
11195767018,-1.1533405,-9.958928,0.23928227,11195767018,0.0012217305,-0.0061086523,0.004886922,11195767018,49.96875
11195769257,-1.134198,-9.963714,0.22971097,11195769257,0.0012217305,-0.007330383,0.0036651916,11195769257,49.96875
11195771496,-1.134198,-9.963714,0.23449662,11195771496,-0.0012217305,-0.0061086523,0.0036651916,11195771496,49.96875
11195773734,-1.1485549,-9.954143,0.25842485,11195773734,0,-0.007330383,0.002443461,11195773734,49.96875
11195775973,-1.134198,-9.954143,0.22971097,11195775973,0.002443461,-0.010995574,0.0036651916,11195775973,49.96875
11195778229,-1.1676974,-9.973285,0.2440679,11195778229,0.0012217305,-0.010995574,0.004886922,11195778229,49.96875
11195780467,-1.1581261,-9.963714,0.23449662,11195780467,0.0036651916,-0.007330383,0.004886922,11195780467,49.992188
11195782706,-1.1533405,-9.954143,0.2440679,11195782706,0.002443461,-0.007330383,0.0036651916,11195782706,49.992188
11195784945,-1.1437693,-9.968499,0.22492532,11195784945,0.002443461,-0.008552114,0.002443461,11195784945,49.992188
11195787685,-1.1629118,-9.968499,0.23928227,11195787685,0.002443461,-0.0061086523,0.0036651916,11195787685,49.992188
11195789435,-1.1629118,-9.963714,0.22971097,11195789435,0.0012217305,-0.0036651916,0.0036651916,11195789435,49.992188
11195791673,-1.1724831,-9.958928,0.24885355,11195791673,0.002443461,-0.008552114,0.0012217305,11195791673,49.992188
11195793912,-1.1676974,-9.954143,0.22971097,11195793912,0.002443461,-0.007330383,0.002443461,11195793912,49.992188
11195796151,-1.1485549,-9.958928,0.22013968,11195796151,-0.0012217305,-0.004886922,0.0036651916,11195796151,49.992188
11195798382,-1.1437693,-9.958928,0.22013968,11195798382,0.0012217305,-0.008552114,0.0036651916,11195798382,49.976562
11195800621,-1.1533405,-9.949356,0.22013968,11195800621,0,-0.004886922,0.0036651916,11195800621,49.976562
11195802860,-1.1437693,-9.958928,0.22971097,11195802860,0.002443461,-0.004886922,0.0036651916,11195802860,49.976562
11195805099,-1.1485549,-9.954143,0.2009971,11195805099,0.002443461,-0.007330383,0.0036651916,11195805099,49.976562
11195807688,-1.1437693,-9.963714,0.2105684,11195807688,0,-0.0061086523,0.0036651916,11195807688,49.976562
11195809601,-1.1485549,-9.958928,0.22013968,11195809601,0.002443461,-0.007330383,0.0012217305,11195809601,49.976562
11195811840,-1.1294123,-9.949356,0.22492532,11195811840,0.0036651916,-0.004886922,0.0036651916,11195811840,49.976562
11195814078,-1.1294123,-9.963714,0.2105684,11195814078,0.002443461,-0.0061086523,0.002443461,11195814078,49.976562
11195816317,-1.1389836,-9.958928,0.20578274,11195816317,0.0012217305,-0.0061086523,0.0036651916,11195816317,49.945312
11195818560,-1.1246266,-9.968499,0.21535404,11195818560,0.0036651916,-0.007330383,0.0036651916,11195818560,49.945312
11195820799,-1.1294123,-9.958928,0.23928227,11195820799,0.002443461,-0.0036651916,0.002443461,11195820799,49.945312
11195823038,-1.134198,-9.958928,0.21535404,11195823038,0.002443461,-0.007330383,0.0036651916,11195823038,49.945312
11195825277,-1.1437693,-9.954143,0.22971097,11195825277,0.0036651916,-0.007330383,0.002443461,11195825277,49.945312
11195827646,-1.1389836,-9.958928,0.22013968,11195827646,0.0036651916,-0.0061086523,0.0036651916,11195827646,49.945312
11195829745,-1.1294123,-9.958928,0.2009971,11195829745,0,-0.0061086523,0.002443461,11195829745,49.945312
11195831984,-1.1485549,-9.958928,0.22492532,11195831984,0.002443461,-0.008552114,0.0036651916,11195831984,49.945312
11195834223,-1.1437693,-9.968499,0.22492532,11195834223,0.0012217305,-0.004886922,0.0036651916,11195834223,49.992188
11195836462,-1.1437693,-9.973285,0.22971097,11195836462,0.0012217305,-0.0061086523,0.002443461,11195836462,49.992188
11195838723,-1.1485549,-9.963714,0.23449662,11195838723,0.002443461,-0.004886922,0.0036651916,11195838723,49.992188
11195840962,-1.1533405,-9.973285,0.21535404,11195840962,0.002443461,-0.007330383,0.002443461,11195840962,49.992188
11195843201,-1.1485549,-9.944571,0.21535404,11195843201,0.0012217305,-0.008552114,0.002443461,11195843201,49.992188
11195845440,-1.1485549,-9.973285,0.23928227,11195845440,0.002443461,-0.0036651916,0.0012217305,11195845440,49.992188
11195847689,-1.134198,-9.949356,0.23928227,11195847689,0.002443461,-0.0061086523,0.002443461,11195847689,49.992188
11195849928,-1.1389836,-9.958928,0.22971097,11195849928,0.0012217305,-0.008552114,0.002443461,11195849928,49.992188
11195852167,-1.1437693,-9.968499,0.23928227,11195852167,0,-0.0061086523,0.0036651916,11195852167,49.96875
11195854406,-1.1246266,-9.963714,0.23928227,11195854406,0.0012217305,-0.007330383,0.0036651916,11195854406,49.96875
11195856644,-1.1437693,-9.963714,0.23449662,11195856644,0.002443461,-0.008552114,0.0036651916,11195856644,49.96875
11195858884,-1.1246266,-9.954143,0.23928227,11195858884,0.0036651916,-0.008552114,0.0012217305,11195858884,49.96875
11195861122,-1.1437693,-9.949356,0.22971097,11195861122,0.0036651916,-0.009773844,0.002443461,11195861122,49.96875
11195863361,-1.1485549,-9.954143,0.21535404,11195863361,0.002443461,-0.007330383,0.0036651916,11195863361,49.96875
11195865600,-1.1485549,-9.958928,0.22013968,11195865600,0,-0.008552114,0.0036651916,11195865600,49.96875
11195867854,-1.1581261,-9.973285,0.2009971,11195867854,0,-0.008552114,0.0012217305,11195867854,49.96875
11195870093,-1.1389836,-9.958928,0.22492532,11195870093,0.0012217305,-0.008552114,0.002443461,11195870093,50
11195872332,-1.1485549,-9.963714,0.2009971,11195872332,0.0012217305,-0.009773844,0.0036651916,11195872332,50
11195874571,-1.134198,-9.963714,0.22492532,11195874571,0.0012217305,-0.008552114,0.0036651916,11195874571,50
11195876810,-1.1246266,-9.958928,0.22971097,11195876810,0.002443461,-0.008552114,0.002443461,11195876810,50
11195879045,-1.1389836,-9.949356,0.21535404,11195879045,0.0012217305,-0.007330383,0.004886922,11195879045,50
11195881284,-1.1389836,-9.973285,0.2009971,11195881284,0.004886922,-0.008552114,0.0012217305,11195881284,50
11195883522,-1.1294123,-9.958928,0.21535404,11195883522,0,-0.008552114,0.0012217305,11195883522,50
11195885761,-1.1389836,-9.939785,0.20578274,11195885761,0,-0.008552114,0.002443461,11195885761,50
11195888015,-1.1246266,-9.958928,0.2105684,11195888015,0.002443461,-0.007330383,0.0036651916,11195888015,49.933594
11195890253,-1.1246266,-9.958928,0.19142582,11195890253,0.002443461,-0.0061086523,0.0036651916,11195890253,49.933594
11195892492,-1.134198,-9.954143,0.18664017,11195892492,0.0012217305,-0.007330383,0.002443461,11195892492,49.933594
11195894731,-1.1294123,-9.949356,0.19142582,11195894731,0.0012217305,-0.008552114,0.002443461,11195894731,49.933594
11195896970,-1.134198,-9.963714,0.21535404,11195896970,0,-0.0061086523,0.0036651916,11195896970,49.933594
11195899209,-1.134198,-9.958928,0.20578274,11195899209,0.002443461,-0.007330383,0.0012217305,11195899209,49.933594
11195901448,-1.1150553,-9.949356,0.22013968,11195901448,0.0012217305,-0.0061086523,0.004886922,11195901448,49.933594
11195903687,-1.1150553,-9.939785,0.2009971,11195903687,0.002443461,-0.007330383,0.004886922,11195903687,49.933594
11195905925,-1.119841,-9.949356,0.22013968,11195905925,0.002443461,-0.004886922,0.0036651916,11195905925,49.992188
11195908182,-1.1246266,-9.954143,0.21535404,11195908182,0.002443461,-0.007330383,0.004886922,11195908182,49.992188
11195910421,-1.134198,-9.958928,0.22492532,11195910421,0.002443461,-0.0061086523,0.0036651916,11195910421,49.992188
11195912660,-1.1437693,-9.954143,0.23449662,11195912660,0.0012217305,-0.004886922,0.004886922,11195912660,49.992188
11195914899,-1.134198,-9.958928,0.23928227,11195914899,0.002443461,-0.0061086523,0.004886922,11195914899,49.992188
11195917137,-1.1437693,-9.968499,0.22971097,11195917137,0.0012217305,-0.004886922,0.002443461,11195917137,49.992188
11195919385,-1.1437693,-9.958928,0.20578274,11195919385,-0.0036651916,-0.004886922,0.0036651916,11195919385,49.992188
11195921624,-1.1533405,-9.963714,0.21535404,11195921624,0,-0.0036651916,0.0036651916,11195921624,49.992188
11195923863,-1.1485549,-9.963714,0.22013968,11195923863,0.002443461,-0.007330383,0.002443461,11195923863,49.96875
11195926101,-1.1629118,-9.963714,0.22492532,11195926101,0.0061086523,-0.007330383,0.002443461,11195926101,49.96875
11195928355,-1.1485549,-9.963714,0.23449662,11195928355,0.002443461,-0.004886922,0.0036651916,11195928355,49.96875
11195930594,-1.1629118,-9.958928,0.2105684,11195930594,0,-0.0036651916,0.0036651916,11195930594,49.96875
11195932832,-1.1389836,-9.968499,0.20578274,11195932832,0.0012217305,-0.0061086523,0.0036651916,11195932832,49.96875
11195935071,-1.134198,-9.958928,0.2105684,11195935071,0.0012217305,-0.004886922,0.004886922,11195935071,49.96875
11195937648,-1.119841,-9.968499,0.22013968,11195937648,0.002443461,-0.004886922,0.002443461,11195937648,49.96875
11195939561,-1.1246266,-9.954143,0.22971097,11195939561,0.0012217305,-0.004886922,0.0036651916,11195939561,49.96875
11195941800,-1.1246266,-9.963714,0.21535404,11195941800,0.0012217305,-0.002443461,0.0036651916,11195941800,49.984375
11195944038,-1.1102697,-9.958928,0.22013968,11195944038,0.0012217305,-0.0061086523,0.002443461,11195944038,49.984375
11195946277,-1.1246266,-9.973285,0.20578274,11195946277,0,-0.004886922,0.0012217305,11195946277,49.984375
11195948512,-1.119841,-9.958928,0.2009971,11195948512,0.0012217305,-0.0061086523,0.0061086523,11195948512,49.984375
11195950751,-1.1437693,-9.949356,0.20578274,11195950751,0.0012217305,-0.0061086523,0.004886922,11195950751,49.984375
11195952990,-1.1150553,-9.954143,0.19621146,11195952990,0.0012217305,-0.0061086523,0.002443461,11195952990,49.984375
11195955229,-1.119841,-9.958928,0.2105684,11195955229,0.0012217305,-0.004886922,0.0036651916,11195955229,49.984375
11195957643,-1.119841,-9.958928,0.22971097,11195957643,0,-0.007330383,0.002443461,11195957643,49.984375
11195959719,-1.1006985,-9.934999,0.20578274,11195959719,0,-0.0061086523,0.0036651916,11195959719,49.96875
11195961958,-1.1246266,-9.934999,0.2009971,11195961958,0,-0.004886922,0.002443461,11195961958,49.96875
11195964197,-1.119841,-9.944571,0.22492532,11195964197,0,-0.008552114,0.002443461,11195964197,49.96875
11195966435,-1.1294123,-9.958928,0.2105684,11195966435,0,-0.0061086523,0.0061086523,11195966435,49.96875
11195968672,-1.1294123,-9.968499,0.2105684,11195968672,0.0012217305,-0.004886922,0.0036651916,11195968672,49.96875
11195970911,-1.119841,-9.968499,0.22492532,11195970911,0.0036651916,-0.0061086523,0.0012217305,11195970911,49.96875
11195973149,-1.1246266,-9.958928,0.19621146,11195973149,0.002443461,-0.007330383,0.004886922,11195973149,49.96875
11195975388,-1.134198,-9.954143,0.2009971,11195975388,0.002443461,-0.004886922,0.002443461,11195975388,49.96875
11195977643,-1.1485549,-9.958928,0.2009971,11195977643,0.002443461,-0.0036651916,0.002443461,11195977643,50.01953
11195979881,-1.1533405,-9.949356,0.19621146,11195979881,0.0012217305,-0.007330383,0.0036651916,11195979881,50.01953
11195982120,-1.1581261,-9.973285,0.2009971,11195982120,0.002443461,-0.0061086523,0.002443461,11195982120,50.01953
11195984359,-1.1581261,-9.954143,0.2105684,11195984359,0,-0.004886922,0.002443461,11195984359,50.01953
11195986598,-1.1437693,-9.968499,0.22971097,11195986598,0.0012217305,-0.007330383,0.0036651916,11195986598,50.01953
11195988839,-1.1485549,-9.958928,0.22013968,11195988839,0.0012217305,-0.007330383,0.002443461,11195988839,50.01953
11195991078,-1.119841,-9.954143,0.22492532,11195991078,0.0012217305,-0.004886922,0.002443461,11195991078,50.01953
11195993317,-1.119841,-9.963714,0.2105684,11195993317,0.0036651916,-0.0036651916,0.002443461,11195993317,50.01953
11195995555,-1.134198,-9.954143,0.22971097,11195995555,0.0036651916,-0.007330383,0.002443461,11195995555,49.98047
11195997818,-1.1102697,-9.958928,0.22492532,11195997818,0.002443461,-0.0036651916,0.0036651916,11195997818,49.98047
11196000057,-1.1102697,-9.949356,0.21535404,11196000057,0.004886922,-0.0061086523,0.0036651916,11196000057,49.98047
11196002296,-1.1294123,-9.963714,0.24885355,11196002296,0.002443461,-0.007330383,0.002443461,11196002296,49.98047
11196004535,-1.1246266,-9.958928,0.2440679,11196004535,0.002443461,-0.007330383,0.002443461,11196004535,49.98047
11196006774,-1.1246266,-9.944571,0.22971097,11196006774,0.002443461,-0.0036651916,0.002443461,11196006774,49.98047
11196009021,-1.134198,-9.949356,0.23449662,11196009021,0,-0.0036651916,0.0036651916,11196009021,49.98047
11196011260,-1.1389836,-9.949356,0.23928227,11196011260,0,-0.0061086523,0.002443461,11196011260,49.98047
11196013498,-1.119841,-9.968499,0.23449662,11196013498,0.002443461,-0.004886922,0.0012217305,11196013498,49.96875
11196015737,-1.134198,-9.949356,0.22971097,11196015737,0.002443461,-0.002443461,0.0036651916,11196015737,49.96875
11196017982,-1.1389836,-9.958928,0.22492532,11196017982,0.002443461,-0.0061086523,0.0036651916,11196017982,49.96875
11196020220,-1.134198,-9.958928,0.2009971,11196020220,0.002443461,-0.004886922,0.004886922,11196020220,49.96875
11196022459,-1.1389836,-9.963714,0.2105684,11196022459,0.0012217305,-0.008552114,0.004886922,11196022459,49.96875
11196024698,-1.1485549,-9.968499,0.20578274,11196024698,-0.0012217305,-0.008552114,0.002443461,11196024698,49.96875
11196026937,-1.1246266,-9.944571,0.21535404,11196026937,0.0012217305,-0.007330383,0.0012217305,11196026937,49.96875
11196029177,-1.1150553,-9.958928,0.22013968,11196029177,0,-0.0061086523,0.002443461,11196029177,49.96875
11196031416,-1.1246266,-9.968499,0.2009971,11196031416,0.0012217305,-0.0061086523,0.0036651916,11196031416,49.976562
11196033655,-1.1485549,-9.954143,0.19621146,11196033655,0.0012217305,-0.007330383,0.0036651916,11196033655,49.976562
11196035893,-1.1485549,-9.958928,0.19142582,11196035893,0.002443461,-0.009773844,0.002443461,11196035893,49.976562
11196038147,-1.1485549,-9.958928,0.20578274,11196038147,0.002443461,-0.007330383,0.0036651916,11196038147,49.976562
11196040386,-1.1485549,-9.958928,0.2105684,11196040386,0.002443461,-0.009773844,0.002443461,11196040386,49.976562
11196042625,-1.1389836,-9.958928,0.20578274,11196042625,0.0012217305,-0.008552114,0.0036651916,11196042625,49.976562
11196044863,-1.1246266,-9.958928,0.20578274,11196044863,-0.0012217305,-0.007330383,0.002443461,11196044863,49.976562
11196047102,-1.1629118,-9.982856,0.20578274,11196047102,0.002443461,-0.0061086523,0.002443461,11196047102,49.976562
11196049338,-1.1437693,-9.963714,0.2009971,11196049338,0.0036651916,-0.0061086523,0.002443461,11196049338,49.953125
11196051577,-1.1533405,-9.949356,0.18664017,11196051577,0.004886922,-0.007330383,0.002443461,11196051577,49.953125
11196053816,-1.1485549,-9.968499,0.22971097,11196053816,0.0036651916,-0.007330383,0.0012217305,11196053816,49.953125
11196056055,-1.1533405,-9.954143,0.22013968,11196056055,0.002443461,-0.0036651916,0.0036651916,11196056055,49.953125
11196058309,-1.1581261,-9.958928,0.21535404,11196058309,0.0012217305,-0.0036651916,0.002443461,11196058309,49.953125
11196060548,-1.1437693,-9.973285,0.2105684,11196060548,0.0012217305,-0.0036651916,0.0012217305,11196060548,49.953125
11196062787,-1.1389836,-9.954143,0.22971097,11196062787,-0.0012217305,-0.009773844,0.002443461,11196062787,49.953125
11196065026,-1.1581261,-9.958928,0.2009971,11196065026,0.0012217305,-0.004886922,0.0036651916,11196065026,49.953125
11196067646,-1.1437693,-9.963714,0.20578274,11196067646,0.0036651916,-0.004886922,0.002443461,11196067646,49.96875
11196069512,-1.1246266,-9.963714,0.22971097,11196069512,0.002443461,-0.004886922,0.0012217305,11196069512,49.96875
11196071751,-1.1246266,-9.958928,0.22971097,11196071751,0.0036651916,-0.0036651916,0.0012217305,11196071751,49.96875
11196073990,-1.134198,-9.968499,0.22971097,11196073990,0,-0.004886922,0.0012217305,11196073990,49.96875
11196076229,-1.1437693,-9.939785,0.22013968,11196076229,0.002443461,-0.004886922,0.0036651916,11196076229,49.96875
11196078489,-1.1437693,-9.944571,0.21535404,11196078489,0.0036651916,-0.004886922,0.0036651916,11196078489,49.96875
11196080728,-1.1150553,-9.944571,0.21535404,11196080728,0.002443461,-0.002443461,0.002443461,11196080728,49.96875
11196082967,-1.1294123,-9.973285,0.21535404,11196082967,0.002443461,-0.007330383,0.002443461,11196082967,49.96875
11196085206,-1.134198,-9.954143,0.22971097,11196085206,0.0012217305,-0.008552114,0.0036651916,11196085206,49.984375
11196087679,-1.1294123,-9.963714,0.22013968,11196087679,0,-0.004886922,0.0036651916,11196087679,49.984375
11196089685,-1.1294123,-9.949356,0.22492532,11196089685,0.0012217305,-0.004886922,0.002443461,11196089685,49.984375
11196091924,-1.119841,-9.968499,0.22492532,11196091924,-0.002443461,-0.0061086523,0.002443461,11196091924,49.984375
11196094163,-1.119841,-9.949356,0.22492532,11196094163,0.002443461,-0.0036651916,0.002443461,11196094163,49.984375
11196096402,-1.1294123,-9.944571,0.21535404,11196096402,0.002443461,-0.0061086523,0.002443461,11196096402,49.984375
11196098638,-1.1246266,-9.954143,0.20578274,11196098638,0.002443461,-0.004886922,0.004886922,11196098638,49.984375
11196100877,-1.1294123,-9.949356,0.22013968,11196100877,0,-0.007330383,0.002443461,11196100877,49.984375
11196103115,-1.1389836,-9.949356,0.23449662,11196103115,0.0012217305,-0.0061086523,0.004886922,11196103115,49.992188
11196105354,-1.134198,-9.963714,0.22492532,11196105354,0.002443461,-0.007330383,0.002443461,11196105354,49.992188
11196107692,-1.134198,-9.958928,0.21535404,11196107692,-0.002443461,-0.0061086523,0.002443461,11196107692,49.992188
11196109838,-1.1485549,-9.968499,0.2105684,11196109838,-0.0012217305,-0.004886922,0.004886922,11196109838,49.992188
11196112077,-1.1246266,-9.97807,0.2105684,11196112077,0.0036651916,-0.0036651916,0.004886922,11196112077,49.992188
11196114316,-1.1389836,-9.97807,0.19142582,11196114316,0,-0.0061086523,0.0036651916,11196114316,49.992188
11196116554,-1.1437693,-9.954143,0.2105684,11196116554,-0.0012217305,-0.0036651916,0.002443461,11196116554,49.992188
11196118823,-1.1437693,-9.963714,0.22492532,11196118823,0,-0.0012217305,0.0036651916,11196118823,49.992188
11196121062,-1.1437693,-9.949356,0.19621146,11196121062,0,-0.002443461,0.002443461,11196121062,49.953125
11196123301,-1.1437693,-9.958928,0.22013968,11196123301,0.002443461,-0.0036651916,0.0036651916,11196123301,49.953125
11196125540,-1.134198,-9.963714,0.18664017,11196125540,0.002443461,-0.004886922,0.002443461,11196125540,49.953125
11196127770,-1.1246266,-9.958928,0.22971097,11196127770,0.0012217305,-0.0061086523,0.002443461,11196127770,49.953125
11196130009,-1.1533405,-9.963714,0.21535404,11196130009,0.002443461,-0.004886922,0.0036651916,11196130009,49.953125
11196132247,-1.1389836,-9.949356,0.2105684,11196132247,0.0036651916,-0.004886922,0.002443461,11196132247,49.953125
11196134486,-1.1102697,-9.958928,0.2009971,11196134486,0.004886922,-0.004886922,0.0036651916,11196134486,49.953125
11196136725,-1.1294123,-9.949356,0.21535404,11196136725,0.002443461,-0.002443461,0.0061086523,11196136725,49.953125
11196138990,-1.119841,-9.944571,0.2105684,11196138990,0,-0.0061086523,0.002443461,11196138990,49.902344
11196141228,-1.1246266,-9.973285,0.2105684,11196141228,-0.002443461,-0.004886922,0.0036651916,11196141228,49.902344
11196143467,-1.1294123,-9.963714,0.21535404,11196143467,0.0012217305,-0.0036651916,0.004886922,11196143467,49.902344
11196145706,-1.134198,-9.954143,0.22492532,11196145706,0.002443461,-0.0036651916,0.0036651916,11196145706,49.902344
11196147937,-1.119841,-9.954143,0.22013968,11196147937,0.0012217305,-0.0036651916,0.004886922,11196147937,49.902344
11196150176,-1.1581261,-9.973285,0.22971097,11196150176,0.0036651916,-0.0012217305,0.0036651916,11196150176,49.902344
11196152415,-1.1437693,-9.958928,0.22492532,11196152415,0.002443461,-0.0061086523,0.002443461,11196152415,49.902344
11196154653,-1.1389836,-9.963714,0.23928227,11196154653,0,-0.0036651916,0.002443461,11196154653,49.902344
11196156892,-1.1437693,-9.973285,0.23449662,11196156892,0.002443461,-0.002443461,0.004886922,11196156892,49.960938
11196159139,-1.1485549,-9.973285,0.22013968,11196159139,0.002443461,-0.0012217305,0.0036651916,11196159139,49.960938
11196161378,-1.1581261,-9.954143,0.23928227,11196161378,0.0012217305,-0.004886922,0.0012217305,11196161378,49.960938
11196163617,-1.1533405,-9.968499,0.23449662,11196163617,0.004886922,-0.004886922,0.0036651916,11196163617,49.960938
11196165856,-1.1629118,-9.954143,0.23449662,11196165856,0.002443461,-0.0036651916,0.0036651916,11196165856,49.960938
11196168111,-1.1629118,-9.949356,0.22492532,11196168111,0.0036651916,-0.002443461,0.002443461,11196168111,49.960938
11196170350,-1.1437693,-9.944571,0.20578274,11196170350,0.0036651916,-0.004886922,0.002443461,11196170350,49.960938
11196172589,-1.1437693,-9.958928,0.22013968,11196172589,0.002443461,-0.004886922,0.0036651916,11196172589,49.960938
11196174827,-1.1437693,-9.954143,0.23449662,11196174827,0.002443461,-0.0036651916,0.0036651916,11196174827,49.96875
11196177066,-1.1437693,-9.958928,0.22492532,11196177066,0.0036651916,-0.004886922,0.002443461,11196177066,49.96875
11196179303,-1.1389836,-9.973285,0.23449662,11196179303,0.002443461,-0.0061086523,0.002443461,11196179303,49.96875
11196181542,-1.1437693,-9.963714,0.23928227,11196181542,0.002443461,-0.004886922,0.0036651916,11196181542,49.96875
11196183781,-1.1485549,-9.968499,0.23449662,11196183781,0,-0.004886922,0.0036651916,11196183781,49.96875
11196186020,-1.1485549,-9.958928,0.22971097,11196186020,0,-0.0061086523,0.0036651916,11196186020,49.96875
11196188276,-1.1485549,-9.968499,0.22971097,11196188276,0.0012217305,-0.0061086523,0.0036651916,11196188276,49.96875
11196190515,-1.1294123,-9.963714,0.22971097,11196190515,0.004886922,-0.0061086523,0.0036651916,11196190515,49.96875
11196192754,-1.1389836,-9.963714,0.21535404,11196192754,0.004886922,-0.0061086523,0.0036651916,11196192754,49.96875
11196194993,-1.1246266,-9.954143,0.23449662,11196194993,0.0036651916,-0.0036651916,0.0036651916,11196194993,49.96875
11196197676,-1.1246266,-9.954143,0.23449662,11196197676,0.0012217305,-0.0036651916,0.002443461,11196197676,49.96875
11196199472,-1.1485549,-9.954143,0.22492532,11196199472,0.002443461,-0.0036651916,0.0036651916,11196199472,49.96875
11196201711,-1.1294123,-9.973285,0.2105684,11196201711,0.002443461,-0.008552114,0.004886922,11196201711,49.96875
11196203950,-1.1150553,-9.949356,0.23449662,11196203950,0.0036651916,-0.007330383,0.0036651916,11196203950,49.96875
11196206189,-1.1150553,-9.958928,0.23449662,11196206189,0.0012217305,-0.004886922,0.0036651916,11196206189,49.96875
11196208437,-1.1246266,-9.949356,0.20578274,11196208437,0.0012217305,-0.0036651916,0.004886922,11196208437,49.96875
11196210676,-1.1389836,-9.963714,0.21535404,11196210676,-0.0012217305,-0.0061086523,0.0036651916,11196210676,49.910156
11196212914,-1.119841,-9.944571,0.23449662,11196212914,0.002443461,-0.007330383,0.0036651916,11196212914,49.910156
11196215153,-1.1389836,-9.958928,0.2105684,11196215153,0.002443461,-0.004886922,0.002443461,11196215153,49.910156
11196217679,-1.1437693,-9.958928,0.23449662,11196217679,0.002443461,-0.0061086523,0.002443461,11196217679,49.910156
11196219638,-1.1437693,-9.939785,0.22013968,11196219638,0.004886922,-0.0061086523,0.002443461,11196219638,49.910156
11196221877,-1.1389836,-9.954143,0.23449662,11196221877,0.0061086523,-0.007330383,0.002443461,11196221877,49.910156
11196224116,-1.1389836,-9.968499,0.22971097,11196224116,0.0012217305,-0.0061086523,0.0036651916,11196224116,49.910156
11196226355,-1.134198,-9.954143,0.2536392,11196226355,0,-0.0036651916,0.002443461,11196226355,49.910156
11196228616,-1.134198,-9.949356,0.23928227,11196228616,0.0036651916,-0.004886922,0.0012217305,11196228616,49.984375
11196230855,-1.1437693,-9.939785,0.23449662,11196230855,0.0012217305,-0.0061086523,0.0036651916,11196230855,49.984375
11196233094,-1.134198,-9.949356,0.23928227,11196233094,0,-0.0061086523,0.0012217305,11196233094,49.984375
11196235333,-1.134198,-9.944571,0.23928227,11196235333,0,-0.004886922,0.002443461,11196235333,49.984375
11196237682,-1.1294123,-9.949356,0.22971097,11196237682,0,-0.007330383,0.0036651916,11196237682,49.984375
11196239805,-1.134198,-9.968499,0.22492532,11196239805,-0.0036651916,-0.002443461,0.002443461,11196239805,49.984375
11196242044,-1.1533405,-9.968499,0.23449662,11196242044,0.0012217305,-0.002443461,0.0036651916,11196242044,49.984375
11196244282,-1.1581261,-9.958928,0.22492532,11196244282,0.004886922,-0.0061086523,0.0036651916,11196244282,49.984375
11196246521,-1.1389836,-9.949356,0.22971097,11196246521,0.004886922,-0.010995574,0.004886922,11196246521,49.933594
11196248787,-1.1533405,-9.958928,0.23449662,11196248787,0.002443461,-0.008552114,0.0036651916,11196248787,49.933594
11196251026,-1.1629118,-9.958928,0.23449662,11196251026,-0.002443461,-0.002443461,0.0036651916,11196251026,49.933594
11196253265,-1.1437693,-9.958928,0.2105684,11196253265,-0.0012217305,0.002443461,0.002443461,11196253265,49.933594
11196255504,-1.1437693,-9.958928,0.22971097,11196255504,-0.0012217305,-0.002443461,0.002443461,11196255504,49.933594
11196257736,-1.1437693,-9.963714,0.22492532,11196257736,0.009773844,-0.009773844,0.004886922,11196257736,49.933594
11196259975,-1.1581261,-9.958928,0.2105684,11196259975,0.010995574,-0.015882496,0.007330383,11196259975,49.933594
11196262213,-1.1294123,-9.963714,0.22971097,11196262213,0.008552114,-0.014660766,0.0061086523,11196262213,49.933594
11196264452,-1.1389836,-9.958928,0.2105684,11196264452,-0.004886922,-0.004886922,0.004886922,11196264452,50
11196266691,-1.1437693,-9.968499,0.22971097,11196266691,-0.008552114,0.004886922,0.0012217305,11196266691,50
11196268936,-1.1246266,-9.958928,0.22492532,11196268936,0.002443461,0,-0.002443461,11196268936,50
11196271175,-1.1294123,-9.949356,0.2009971,11196271175,0.009773844,-0.012217305,0.002443461,11196271175,50
11196273414,-1.134198,-9.949356,0.2105684,11196273414,0.008552114,-0.021991149,0.007330383,11196273414,50
11196275653,-1.1246266,-9.949356,0.22013968,11196275653,0.0012217305,-0.014660766,0.004886922,11196275653,50
11196277902,-1.1437693,-9.954143,0.22971097,11196277902,-0.0036651916,-0.0012217305,0.0012217305,11196277902,50
11196280141,-1.119841,-9.954143,0.22971097,11196280141,-0.0061086523,0.0036651916,-0.0012217305,11196280141,50
11196282380,-1.134198,-9.949356,0.22492532,11196282380,0.002443461,-0.0012217305,0.0012217305,11196282380,49.976562
11196284618,-1.1533405,-9.963714,0.22492532,11196284618,0.008552114,-0.010995574,0.0061086523,11196284618,49.976562
11196286857,-1.1533405,-9.97807,0.20578274,11196286857,0.009773844,-0.015882496,0.0061086523,11196286857,49.976562
11196289106,-1.1485549,-9.958928,0.2105684,11196289106,0.002443461,-0.010995574,0.004886922,11196289106,49.976562
11196291345,-1.1437693,-9.954143,0.21535404,11196291345,-0.0036651916,-0.004886922,0.002443461,11196291345,49.976562
11196293584,-1.134198,-9.963714,0.23449662,11196293584,-0.0036651916,0.0061086523,0.0012217305,11196293584,49.976562
11196295823,-1.1485549,-9.949356,0.23928227,11196295823,0,0.002443461,0.0012217305,11196295823,49.976562
11196298062,-1.1533405,-9.958928,0.2440679,11196298062,0.007330383,-0.008552114,0.0036651916,11196298062,49.976562
11196300301,-1.1581261,-9.954143,0.22492532,11196300301,0.007330383,-0.010995574,0.007330383,11196300301,49.960938
11196302540,-1.1629118,-9.939785,0.2105684,11196302540,0.002443461,-0.012217305,0.004886922,11196302540,49.960938
11196304779,-1.1581261,-9.949356,0.2105684,11196304779,-0.007330383,-0.0036651916,0,11196304779,49.960938
11196307018,-1.1485549,-9.944571,0.24885355,11196307018,-0.004886922,0.0061086523,-0.0012217305,11196307018,49.960938
11196309268,-1.1389836,-9.968499,0.22971097,11196309268,0,0.0012217305,-0.0012217305,11196309268,49.960938
11196311507,-1.134198,-9.963714,0.22492532,11196311507,0.009773844,-0.010995574,0.0036651916,11196311507,49.960938
11196313745,-1.134198,-9.968499,0.2440679,11196313745,0.013439035,-0.013439035,0.0061086523,11196313745,49.960938
11196315984,-1.1102697,-9.968499,0.25842485,11196315984,0.004886922,-0.010995574,0.007330383,11196315984,49.960938
11196318232,-1.119841,-9.954143,0.23928227,11196318232,-0.0061086523,-0.004886922,0,11196318232,49.992188
11196320470,-1.1246266,-9.963714,0.2536392,11196320470,-0.004886922,0.002443461,-0.0012217305,11196320470,49.992188
11196322709,-1.1246266,-9.963714,0.22971097,11196322709,0.0012217305,0,0.0012217305,11196322709,49.992188
11196324948,-1.1294123,-9.949356,0.2105684,11196324948,0.007330383,-0.017104227,0.004886922,11196324948,49.992188
11196327678,-1.134198,-9.949356,0.22492532,11196327678,0.0061086523,-0.019547688,0.0061086523,11196327678,49.992188
11196329451,-1.134198,-9.958928,0.22971097,11196329451,-0.0036651916,-0.004886922,0.007330383,11196329451,49.992188
11196331690,-1.1246266,-9.954143,0.23449662,11196331690,-0.008552114,0.0012217305,0.002443461,11196331690,49.992188
11196333929,-1.1294123,-9.954143,0.22013968,11196333929,-0.0036651916,0.0036651916,0,11196333929,49.992188
11196336167,-1.1389836,-9.954143,0.22492532,11196336167,0.004886922,0,0.004886922,11196336167,49.91797
11196338396,-1.1485549,-9.963714,0.23449662,11196338396,0.0012217305,-0.0061086523,0.0036651916,11196338396,49.91797
11196340635,-1.1246266,-9.949356,0.22492532,11196340635,0.0012217305,-0.008552114,0.0036651916,11196340635,49.91797
11196342873,-1.1389836,-9.954143,0.22492532,11196342873,0.0012217305,-0.0061086523,0.0061086523,11196342873,49.91797
11196345112,-1.1581261,-9.958928,0.23928227,11196345112,0.0012217305,-0.004886922,0.002443461,11196345112,49.91797
11196347645,-1.1485549,-9.963714,0.21535404,11196347645,0.002443461,-0.0061086523,0.0012217305,11196347645,49.91797
11196349604,-1.1533405,-9.968499,0.20578274,11196349604,0.0012217305,-0.0061086523,0.0036651916,11196349604,49.91797
11196351843,-1.1389836,-9.97807,0.23449662,11196351843,0.0012217305,-0.004886922,0.0036651916,11196351843,49.91797
11196354082,-1.1676974,-9.963714,0.22492532,11196354082,0.0036651916,-0.007330383,0.004886922,11196354082,50
11196356321,-1.1629118,-9.954143,0.22492532,11196356321,0.0036651916,-0.0061086523,0.0061086523,11196356321,50
11196358580,-1.1676974,-9.954143,0.21535404,11196358580,0.0036651916,-0.004886922,0.004886922,11196358580,50
11196360819,-1.1629118,-9.963714,0.23449662,11196360819,0.0036651916,-0.007330383,0.002443461,11196360819,50
11196363058,-1.1533405,-9.968499,0.22492532,11196363058,0.002443461,-0.004886922,0.002443461,11196363058,50
11196365297,-1.1629118,-9.958928,0.19142582,11196365297,0.002443461,-0.0036651916,0.002443461,11196365297,50
11196367642,-1.1294123,-9.944571,0.20578274,11196367642,0.002443461,-0.0036651916,0.002443461,11196367642,50
11196369765,-1.1485549,-9.958928,0.20578274,11196369765,0.007330383,-0.008552114,0.0036651916,11196369765,50
11196372004,-1.134198,-9.958928,0.2105684,11196372004,0.004886922,-0.0061086523,0.0036651916,11196372004,49.96875
11196374242,-1.1485549,-9.958928,0.22492532,11196374242,0.002443461,-0.0061086523,0.002443461,11196374242,49.96875
11196376481,-1.1437693,-9.949356,0.22013968,11196376481,0.0012217305,-0.008552114,0.0036651916,11196376481,49.96875
11196378743,-1.1294123,-9.958928,0.2105684,11196378743,-0.0012217305,-0.007330383,0.002443461,11196378743,49.96875
11196380981,-1.1294123,-9.949356,0.22971097,11196380981,0,-0.007330383,0.002443461,11196380981,49.96875
11196383220,-1.1246266,-9.968499,0.2105684,11196383220,0.004886922,-0.007330383,0.002443461,11196383220,49.96875
11196385459,-1.134198,-9.949356,0.22971097,11196385459,0.002443461,-0.008552114,0.002443461,11196385459,49.96875
11196387695,-1.1294123,-9.973285,0.21535404,11196387695,0.0012217305,-0.0061086523,0.002443461,11196387695,49.96875
11196389934,-1.1389836,-9.954143,0.23449662,11196389934,0.0036651916,-0.008552114,0.0036651916,11196389934,50
11196392173,-1.1389836,-9.949356,0.23449662,11196392173,0.0012217305,-0.007330383,0.002443461,11196392173,50
11196394412,-1.1389836,-9.958928,0.22013968,11196394412,0.0012217305,-0.008552114,0.0012217305,11196394412,50
11196396650,-1.1294123,-9.968499,0.2440679,11196396650,0.002443461,-0.0061086523,0.0036651916,11196396650,50
11196398906,-1.1294123,-9.958928,0.24885355,11196398906,0,-0.0061086523,0.0036651916,11196398906,50
11196401145,-1.1294123,-9.949356,0.22971097,11196401145,0.0012217305,-0.008552114,0.002443461,11196401145,50
11196403384,-1.134198,-9.958928,0.2105684,11196403384,0,-0.0061086523,0.0036651916,11196403384,50
11196405622,-1.1485549,-9.958928,0.22013968,11196405622,0.0012217305,-0.007330383,0.002443461,11196405622,50
11196407865,-1.1294123,-9.949356,0.22971097,11196407865,0.002443461,-0.004886922,0.002443461,11196407865,49.984375
11196410104,-1.134198,-9.949356,0.22492532,11196410104,0.002443461,-0.004886922,0.0036651916,11196410104,49.984375
11196412343,-1.1389836,-9.954143,0.22013968,11196412343,0,-0.008552114,0.004886922,11196412343,49.984375
11196414582,-1.1581261,-9.958928,0.22013968,11196414582,0,-0.0061086523,0.0012217305,11196414582,49.984375
11196416821,-1.134198,-9.963714,0.22492532,11196416821,0.0012217305,-0.007330383,0.002443461,11196416821,49.984375
11196419071,-1.1437693,-9.958928,0.19621146,11196419071,0.0036651916,-0.009773844,0.002443461,11196419071,49.984375
11196421310,-1.1485549,-9.958928,0.2105684,11196421310,0.0036651916,-0.010995574,0.002443461,11196421310,49.984375
11196423549,-1.1389836,-9.958928,0.19621146,11196423549,0,-0.0061086523,0.002443461,11196423549,49.984375
11196425788,-1.1581261,-9.954143,0.2105684,11196425788,-0.0012217305,-0.007330383,0.002443461,11196425788,49.976562
11196428031,-1.1533405,-9.944571,0.22013968,11196428031,-0.0012217305,-0.008552114,0.002443461,11196428031,49.976562
11196430270,-1.1533405,-9.958928,0.2009971,11196430270,-0.0036651916,-0.0036651916,0.0012217305,11196430270,49.976562
11196432509,-1.1389836,-9.949356,0.20578274,11196432509,0.0012217305,-0.008552114,0.0036651916,11196432509,49.976562
11196434748,-1.1581261,-9.963714,0.20578274,11196434748,0.002443461,-0.008552114,0.0036651916,11196434748,49.976562
11196436987,-1.1389836,-9.963714,0.23449662,11196436987,0.002443461,-0.007330383,0.002443461,11196436987,49.976562
11196439247,-1.1437693,-9.954143,0.20578274,11196439247,0.0012217305,-0.004886922,0.002443461,11196439247,49.976562
11196441486,-1.1485549,-9.958928,0.19142582,11196441486,0.0012217305,-0.0061086523,0.0036651916,11196441486,49.976562
11196443725,-1.1389836,-9.963714,0.2009971,11196443725,0.0012217305,-0.004886922,0,11196443725,49.992188
11196445963,-1.1533405,-9.944571,0.22492532,11196445963,0.0012217305,-0.008552114,0.0012217305,11196445963,49.992188
11196448214,-1.1485549,-9.954143,0.2009971,11196448214,0,-0.004886922,0.002443461,11196448214,49.992188
11196450453,-1.134198,-9.954143,0.2009971,11196450453,0,-0.0012217305,0.004886922,11196450453,49.992188
11196452691,-1.1294123,-9.954143,0.21535404,11196452691,0.002443461,-0.0061086523,0.002443461,11196452691,49.992188
11196454930,-1.134198,-9.968499,0.22971097,11196454930,0.0012217305,-0.0061086523,0.0012217305,11196454930,49.992188
11196457169,-1.1437693,-9.963714,0.19621146,11196457169,0.002443461,-0.007330383,0.0012217305,11196457169,49.992188
11196459408,-1.1294123,-9.949356,0.22971097,11196459408,0,-0.007330383,0.002443461,11196459408,49.992188
11196461647,-1.1294123,-9.963714,0.23449662,11196461647,0,-0.0061086523,0.0036651916,11196461647,49.992188
11196463886,-1.1150553,-9.963714,0.2105684,11196463886,0.0012217305,-0.0061086523,0.0036651916,11196463886,49.992188
11196466125,-1.1294123,-9.954143,0.22013968,11196466125,0,-0.007330383,0.0036651916,11196466125,49.992188
11196468379,-1.119841,-9.954143,0.22492532,11196468379,0.004886922,-0.008552114,0.0036651916,11196468379,49.992188
11196470618,-1.1437693,-9.954143,0.2105684,11196470618,0.0036651916,-0.0061086523,0.004886922,11196470618,49.992188
11196472857,-1.1294123,-9.958928,0.22013968,11196472857,0.002443461,-0.0061086523,0.0036651916,11196472857,49.992188
11196475096,-1.1437693,-9.97807,0.2105684,11196475096,0,-0.007330383,0.002443461,11196475096,49.992188
11196477642,-1.134198,-9.954143,0.19621146,11196477642,0.0012217305,-0.0061086523,0.0012217305,11196477642,49.992188
11196479578,-1.134198,-9.968499,0.22013968,11196479578,-0.0012217305,-0.004886922,0.0036651916,11196479578,49.976562
11196481817,-1.134198,-9.954143,0.2105684,11196481817,0.002443461,-0.009773844,0.0036651916,11196481817,49.976562
11196484056,-1.1581261,-9.954143,0.2105684,11196484056,-0.002443461,-0.007330383,0.0036651916,11196484056,49.976562
11196486295,-1.1437693,-9.944571,0.22492532,11196486295,0,-0.004886922,0.004886922,11196486295,49.976562
11196488534,-1.1389836,-9.958928,0.2009971,11196488534,0.002443461,-0.007330383,0.002443461,11196488534,49.976562
11196490773,-1.1533405,-9.963714,0.20578274,11196490773,0.004886922,-0.0061086523,0.002443461,11196490773,49.976562
11196493011,-1.1533405,-9.958928,0.19621146,11196493011,0.0012217305,-0.0061086523,0.002443461,11196493011,49.976562
11196495250,-1.1389836,-9.954143,0.19142582,11196495250,0,-0.007330383,0.002443461,11196495250,49.976562
11196497642,-1.1389836,-9.968499,0.2009971,11196497642,0,-0.007330383,0.002443461,11196497642,49.96875
11196499741,-1.134198,-9.958928,0.19621146,11196499741,0.0012217305,-0.0061086523,0.002443461,11196499741,49.96875
11196501980,-1.1437693,-9.963714,0.2009971,11196501980,0,-0.004886922,0.004886922,11196501980,49.96875
11196504219,-1.1389836,-9.958928,0.19621146,11196504219,0,-0.007330383,0.004886922,11196504219,49.96875
11196506458,-1.1246266,-9.949356,0.19621146,11196506458,0.002443461,-0.008552114,0.0036651916,11196506458,49.96875
11196508709,-1.1389836,-9.954143,0.18185452,11196508709,0.002443461,-0.0061086523,0.002443461,11196508709,49.96875
11196510948,-1.1389836,-9.949356,0.19621146,11196510948,0.0012217305,-0.008552114,0.0012217305,11196510948,49.96875
11196513187,-1.1294123,-9.958928,0.19142582,11196513187,0.0012217305,-0.0036651916,0.0012217305,11196513187,49.96875
11196515425,-1.119841,-9.949356,0.21535404,11196515425,0,-0.002443461,0.002443461,11196515425,49.984375
11196517680,-1.1150553,-9.939785,0.2009971,11196517680,0.002443461,-0.004886922,0.0012217305,11196517680,49.984375
11196519896,-1.1389836,-9.949356,0.2105684,11196519896,0.0036651916,-0.0036651916,0.002443461,11196519896,49.984375
11196522135,-1.1389836,-9.958928,0.20578274,11196522135,0.002443461,-0.0036651916,0.0036651916,11196522135,49.984375
11196524374,-1.119841,-9.958928,0.20578274,11196524374,0.0036651916,-0.004886922,0.002443461,11196524374,49.984375
11196526612,-1.1246266,-9.949356,0.20578274,11196526612,0.002443461,-0.004886922,0.002443461,11196526612,49.984375
11196528873,-1.134198,-9.954143,0.2009971,11196528873,0.0012217305,-0.004886922,0.002443461,11196528873,49.984375
11196531112,-1.1294123,-9.954143,0.19621146,11196531112,0.004886922,-0.0061086523,0.0012217305,11196531112,49.984375
11196533351,-1.134198,-9.949356,0.19621146,11196533351,0.0012217305,-0.0061086523,0.0036651916,11196533351,49.960938
11196535589,-1.1437693,-9.958928,0.22971097,11196535589,0.004886922,-0.0061086523,0.0036651916,11196535589,49.960938
11196537844,-1.1485549,-9.963714,0.21535404,11196537844,0.0012217305,-0.0036651916,0.0036651916,11196537844,49.960938
11196540083,-1.1581261,-9.949356,0.19621146,11196540083,0.0012217305,-0.0012217305,0.0012217305,11196540083,49.960938
11196542321,-1.1629118,-9.949356,0.2105684,11196542321,0.0036651916,-0.0061086523,0.002443461,11196542321,49.960938
11196544560,-1.1389836,-9.954143,0.20578274,11196544560,0.002443461,-0.0036651916,0.0036651916,11196544560,49.960938
11196546799,-1.1294123,-9.963714,0.22013968,11196546799,0.0012217305,-0.0036651916,0.0036651916,11196546799,49.960938
11196549036,-1.1294123,-9.949356,0.20578274,11196549036,0.0036651916,-0.002443461,0.002443461,11196549036,49.960938
11196551275,-1.1294123,-9.934999,0.21535404,11196551275,0.002443461,-0.004886922,0.0012217305,11196551275,49.96875
11196553514,-1.1389836,-9.954143,0.21535404,11196553514,0.002443461,-0.0061086523,0.0012217305,11196553514,49.96875
11196555753,-1.1246266,-9.954143,0.22013968,11196555753,0.004886922,-0.0061086523,0.0012217305,11196555753,49.96875
11196558004,-1.1485549,-9.968499,0.21535404,11196558004,0,-0.0061086523,0.002443461,11196558004,49.96875
11196560243,-1.1294123,-9.963714,0.20578274,11196560243,0.0012217305,-0.0036651916,0.004886922,11196560243,49.96875
11196562482,-1.134198,-9.963714,0.21535404,11196562482,0.0012217305,-0.0061086523,0.002443461,11196562482,49.96875
11196564720,-1.134198,-9.968499,0.20578274,11196564720,0.0036651916,-0.0061086523,0,11196564720,49.96875
11196566959,-1.1246266,-9.958928,0.21535404,11196566959,0.0036651916,-0.007330383,0.0036651916,11196566959,49.96875
11196569196,-1.134198,-9.949356,0.22971097,11196569196,0.0036651916,-0.0036651916,0.002443461,11196569196,49.96875
11196571435,-1.1246266,-9.954143,0.21535404,11196571435,0.002443461,-0.002443461,0.004886922,11196571435,49.96875
11196573674,-1.134198,-9.954143,0.22013968,11196573674,0.002443461,-0.004886922,0.004886922,11196573674,49.96875
11196575913,-1.1389836,-9.973285,0.22013968,11196575913,0.0036651916,-0.002443461,0.0061086523,11196575913,49.96875
11196578170,-1.134198,-9.958928,0.20578274,11196578170,0.004886922,-0.002443461,0.002443461,11196578170,49.96875
11196580409,-1.1150553,-9.954143,0.19142582,11196580409,0.0012217305,-0.0036651916,0.004886922,11196580409,49.96875
11196582648,-1.1294123,-9.963714,0.2105684,11196582648,0,-0.0036651916,0.0036651916,11196582648,49.96875
11196584887,-1.1389836,-9.968499,0.22492532,11196584887,0.0012217305,-0.0036651916,0.0012217305,11196584887,49.96875
11196587125,-1.119841,-9.954143,0.20578274,11196587125,0.0036651916,-0.0036651916,0.0036651916,11196587125,49.976562
11196589375,-1.1294123,-9.963714,0.2009971,11196589375,0.002443461,-0.0036651916,0.0012217305,11196589375,49.976562
11196591614,-1.1533405,-9.949356,0.2009971,11196591614,0.002443461,-0.0012217305,0.002443461,11196591614,49.976562
11196593853,-1.1437693,-9.954143,0.21535404,11196593853,0.004886922,-0.0061086523,0.002443461,11196593853,49.976562
11196596092,-1.134198,-9.968499,0.21535404,11196596092,0.002443461,-0.004886922,0.0036651916,11196596092,49.976562
11196598344,-1.1246266,-9.963714,0.2105684,11196598344,0.004886922,-0.002443461,0.002443461,11196598344,49.976562
11196600583,-1.1533405,-9.949356,0.22492532,11196600583,0.0061086523,-0.004886922,0.0012217305,11196600583,49.976562
11196602822,-1.119841,-9.958928,0.19621146,11196602822,0.002443461,-0.007330383,0.0036651916,11196602822,49.976562
11196605061,-1.1150553,-9.963714,0.22971097,11196605061,0.002443461,0,0.0036651916,11196605061,49.976562
11196607693,-1.1437693,-9.958928,0.23449662,11196607693,0.0036651916,-0.0036651916,0.0036651916,11196607693,49.976562
11196609536,-1.1389836,-9.973285,0.23449662,11196609536,0.002443461,-0.0061086523,0.004886922,11196609536,49.976562
11196611775,-1.1294123,-9.963714,0.22492532,11196611775,0.002443461,-0.0036651916,0.0036651916,11196611775,49.976562
11196614013,-1.1294123,-9.944571,0.21535404,11196614013,0.0012217305,-0.0036651916,0.0061086523,11196614013,49.976562
11196616252,-1.1150553,-9.944571,0.24885355,11196616252,-0.0012217305,-0.007330383,0.0036651916,11196616252,49.976562
11196618500,-1.134198,-9.954143,0.22492532,11196618500,0,-0.004886922,0.0012217305,11196618500,49.976562
11196620739,-1.1581261,-9.949356,0.2536392,11196620739,0.002443461,-0.004886922,0.002443461,11196620739,49.976562
11196622977,-1.1437693,-9.963714,0.22971097,11196622977,0.0012217305,-0.008552114,0.0036651916,11196622977,49.976562
11196625216,-1.1533405,-9.968499,0.22013968,11196625216,0.002443461,-0.004886922,0.002443461,11196625216,49.976562
11196627681,-1.1485549,-9.958928,0.2440679,11196627681,0.002443461,-0.0036651916,0.002443461,11196627681,49.976562
11196629710,-1.1533405,-9.949356,0.22971097,11196629710,0.0036651916,-0.0012217305,0.0036651916,11196629710,49.976562
11196631949,-1.1485549,-9.958928,0.23449662,11196631949,0.0012217305,-0.007330383,0.0036651916,11196631949,49.976562
11196634188,-1.1389836,-9.973285,0.22013968,11196634188,0,-0.004886922,0.0036651916,11196634188,49.976562
11196636427,-1.1389836,-9.939785,0.23449662,11196636427,0.0012217305,-0.0036651916,0.0036651916,11196636427,49.976562
11196638664,-1.1533405,-9.954143,0.22492532,11196638664,0.0012217305,-0.004886922,0.002443461,11196638664,49.976562
11196640903,-1.134198,-9.963714,0.22971097,11196640903,0.002443461,-0.004886922,0.0036651916,11196640903,49.976562
11196643142,-1.1246266,-9.963714,0.2440679,11196643142,0,-0.009773844,0.0036651916,11196643142,49.976562
11196645380,-1.1246266,-9.954143,0.2105684,11196645380,0.0036651916,-0.007330383,0.002443461,11196645380,49.976562
11196647678,-1.134198,-9.949356,0.23449662,11196647678,0.0036651916,-0.007330383,0.0036651916,11196647678,49.976562
11196649871,-1.1294123,-9.958928,0.22971097,11196649871,0.002443461,-0.007330383,0.0012217305,11196649871,49.976562
11196652109,-1.119841,-9.963714,0.2105684,11196652109,0,-0.004886922,0.002443461,11196652109,49.976562
11196654348,-1.1150553,-9.958928,0.22971097,11196654348,0.002443461,-0.0036651916,0.0036651916,11196654348,49.976562
11196656587,-1.1294123,-9.954143,0.22971097,11196656587,0.0012217305,-0.007330383,0.004886922,11196656587,49.976562
11196658825,-1.1294123,-9.944571,0.2105684,11196658825,0.0012217305,-0.0061086523,0.0012217305,11196658825,50.007812
11196661064,-1.1294123,-9.939785,0.22013968,11196661064,0.002443461,-0.007330383,0.002443461,11196661064,50.007812
11196663303,-1.1294123,-9.944571,0.22971097,11196663303,0.0036651916,-0.007330383,0.0036651916,11196663303,50.007812
11196665542,-1.1294123,-9.963714,0.21535404,11196665542,0.002443461,-0.004886922,0.0036651916,11196665542,50.007812
11196667798,-1.1150553,-9.954143,0.2009971,11196667798,-0.0012217305,-0.0061086523,0.004886922,11196667798,50.007812
11196670037,-1.1246266,-9.958928,0.2105684,11196670037,0.0012217305,-0.0061086523,0.004886922,11196670037,50.007812
11196672276,-1.1485549,-9.958928,0.23449662,11196672276,0.002443461,-0.004886922,0.004886922,11196672276,50.007812
11196674515,-1.1581261,-9.968499,0.21535404,11196674515,0.002443461,-0.008552114,0.0036651916,11196674515,50.007812
11196676753,-1.1485549,-9.958928,0.22013968,11196676753,-0.0012217305,-0.008552114,0.0036651916,11196676753,49.945312
11196679000,-1.1581261,-9.958928,0.23449662,11196679000,0.0012217305,-0.0061086523,0.0036651916,11196679000,49.945312
11196681239,-1.1533405,-9.949356,0.23928227,11196681239,0.002443461,-0.008552114,0.004886922,11196681239,49.945312
11196683478,-1.1389836,-9.954143,0.22013968,11196683478,0,-0.009773844,0.0036651916,11196683478,49.945312
11196685717,-1.1437693,-9.954143,0.22013968,11196685717,0.0012217305,-0.008552114,0.0036651916,11196685717,49.945312
11196687972,-1.1533405,-9.963714,0.2536392,11196687972,0.0036651916,-0.0036651916,0.004886922,11196687972,49.945312
11196690211,-1.1533405,-9.963714,0.22492532,11196690211,0,-0.007330383,0.002443461,11196690211,49.945312
11196692450,-1.1437693,-9.958928,0.22971097,11196692450,0.0012217305,-0.0061086523,0.002443461,11196692450,49.945312
11196694688,-1.1246266,-9.949356,0.22492532,11196694688,0.002443461,-0.004886922,0.002443461,11196694688,50.007812
11196696927,-1.119841,-9.954143,0.2536392,11196696927,0.002443461,-0.008552114,0.004886922,11196696927,50.007812
11196699162,-1.1150553,-9.949356,0.2440679,11196699162,0.0036651916,-0.007330383,0.0036651916,11196699162,50.007812
11196701401,-1.1294123,-9.954143,0.24885355,11196701401,0.0036651916,-0.0061086523,0.002443461,11196701401,50.007812
11196703640,-1.1246266,-9.954143,0.21535404,11196703640,0,-0.0061086523,0.002443461,11196703640,50.007812
11196705879,-1.1294123,-9.958928,0.22492532,11196705879,0.002443461,-0.0061086523,0.0036651916,11196705879,50.007812
11196708123,-1.1389836,-9.954143,0.23449662,11196708123,0.002443461,-0.004886922,0.002443461,11196708123,50.007812
11196710362,-1.119841,-9.954143,0.2105684,11196710362,0.0012217305,-0.0061086523,0.002443461,11196710362,50.007812
11196712601,-1.1294123,-9.958928,0.22013968,11196712601,0.002443461,-0.004886922,0.004886922,11196712601,49.976562
11196714839,-1.1389836,-9.958928,0.22971097,11196714839,0.004886922,-0.0061086523,0.004886922,11196714839,49.976562
11196717078,-1.1437693,-9.949356,0.23449662,11196717078,0.002443461,-0.004886922,0.002443461,11196717078,49.976562
11196719326,-1.1485549,-9.954143,0.23449662,11196719326,-0.0012217305,-0.004886922,0.002443461,11196719326,49.976562
11196721564,-1.1389836,-9.958928,0.22013968,11196721564,0,-0.004886922,0.004886922,11196721564,49.976562
11196723803,-1.1533405,-9.958928,0.20578274,11196723803,0.0012217305,-0.0036651916,0.0036651916,11196723803,49.976562
11196726042,-1.1485549,-9.934999,0.2105684,11196726042,0.0036651916,-0.0061086523,0.0036651916,11196726042,49.976562
11196728297,-1.1533405,-9.954143,0.2009971,11196728297,0.002443461,-0.007330383,0.0036651916,11196728297,49.976562
11196730536,-1.1581261,-9.954143,0.23928227,11196730536,0,-0.009773844,0.002443461,11196730536,49.945312
11196732775,-1.1629118,-9.958928,0.22013968,11196732775,0.002443461,-0.004886922,0.002443461,11196732775,49.945312
11196735014,-1.1389836,-9.939785,0.22013968,11196735014,0.0036651916,-0.008552114,0.0036651916,11196735014,49.945312
11196737681,-1.1533405,-9.949356,0.23449662,11196737681,0.0036651916,-0.007330383,0.002443461,11196737681,49.945312
11196739501,-1.1437693,-9.949356,0.22492532,11196739501,0.004886922,-0.004886922,0.002443461,11196739501,49.945312
11196741739,-1.1485549,-9.963714,0.22971097,11196741739,0.002443461,-0.0036651916,0.002443461,11196741739,49.945312
11196743978,-1.1485549,-9.954143,0.22013968,11196743978,0.0012217305,-0.0036651916,0.002443461,11196743978,49.945312
11196746217,-1.1437693,-9.949356,0.21535404,11196746217,0.0012217305,-0.004886922,0.002443461,11196746217,49.945312
11196748452,-1.1437693,-9.958928,0.22492532,11196748452,0.0036651916,-0.0061086523,0.0036651916,11196748452,49.976562
11196750691,-1.1581261,-9.954143,0.22971097,11196750691,0.0012217305,-0.004886922,0.002443461,11196750691,49.976562
11196752930,-1.1485549,-9.958928,0.21535404,11196752930,0.002443461,-0.0036651916,0.002443461,11196752930,49.976562
11196755169,-1.134198,-9.958928,0.21535404,11196755169,0.002443461,-0.004886922,0.002443461,11196755169,49.976562
11196757678,-1.134198,-9.958928,0.20578274,11196757678,0,-0.007330383,0.0036651916,11196757678,49.976562
11196759661,-1.1533405,-9.963714,0.22971097,11196759661,0.0012217305,-0.002443461,0.0012217305,11196759661,49.976562
11196761900,-1.1581261,-9.958928,0.23449662,11196761900,0,-0.007330383,0.002443461,11196761900,49.976562
11196764138,-1.1294123,-9.968499,0.22013968,11196764138,0,-0.0061086523,0.0012217305,11196764138,49.976562
11196766377,-1.1389836,-9.958928,0.24885355,11196766377,-0.0012217305,-0.0036651916,0.0012217305,11196766377,49.96875
11196768628,-1.134198,-9.939785,0.2105684,11196768628,0.0036651916,-0.007330383,0.002443461,11196768628,49.96875
11196770867,-1.1294123,-9.968499,0.23449662,11196770867,0.002443461,-0.0061086523,0.0036651916,11196770867,49.96875
11196773106,-1.134198,-9.963714,0.24885355,11196773106,0.0012217305,-0.004886922,0.004886922,11196773106,49.96875
11196775344,-1.1389836,-9.944571,0.2105684,11196775344,0,-0.0061086523,0.0036651916,11196775344,49.96875
11196777646,-1.1437693,-9.963714,0.22971097,11196777646,0.0012217305,-0.009773844,0.0036651916,11196777646,49.96875
11196779839,-1.1485549,-9.958928,0.23928227,11196779839,0.0012217305,-0.0061086523,0.002443461,11196779839,49.96875
11196782077,-1.1437693,-9.954143,0.23928227,11196782077,0.0012217305,-0.007330383,0.0036651916,11196782077,49.96875
11196784316,-1.1246266,-9.968499,0.22971097,11196784316,0.002443461,-0.0061086523,0.002443461,11196784316,50
11196786555,-1.134198,-9.934999,0.22492532,11196786555,0.0036651916,-0.008552114,0.002443461,11196786555,50
11196788793,-1.1389836,-9.954143,0.22971097,11196788793,0.0036651916,-0.009773844,0.0036651916,11196788793,50
11196791032,-1.1294123,-9.949356,0.22013968,11196791032,0.002443461,-0.009773844,0.0012217305,11196791032,50
11196793271,-1.1294123,-9.949356,0.22492532,11196793271,0,-0.007330383,0.002443461,11196793271,50
11196795510,-1.134198,-9.958928,0.2105684,11196795510,0.004886922,-0.007330383,0.0012217305,11196795510,50
11196797761,-1.1437693,-9.954143,0.22492532,11196797761,0,-0.007330383,0.0036651916,11196797761,50
11196800000,-1.1437693,-9.963714,0.2105684,11196800000,0.0012217305,-0.007330383,0.0036651916,11196800000,50
11196802239,-1.1485549,-9.968499,0.2105684,11196802239,0.0012217305,-0.0061086523,0.002443461,11196802239,50.007812
11196804478,-1.1294123,-9.949356,0.22971097,11196804478,0.0012217305,-0.004886922,0.0036651916,11196804478,50.007812
11196806716,-1.1485549,-9.958928,0.21535404,11196806716,0.002443461,-0.0061086523,0.0036651916,11196806716,50.007812
11196808964,-1.1437693,-9.973285,0.19621146,11196808964,0.002443461,-0.0061086523,0.0036651916,11196808964,50.007812
11196811202,-1.1533405,-9.954143,0.22013968,11196811202,0.0061086523,-0.009773844,0.0036651916,11196811202,50.007812
11196813441,-1.1437693,-9.958928,0.23449662,11196813441,0.002443461,-0.007330383,0.0036651916,11196813441,50.007812
11196815680,-1.1389836,-9.944571,0.23449662,11196815680,0.0012217305,-0.0061086523,0.0036651916,11196815680,50.007812
11196817926,-1.1485549,-9.97807,0.22971097,11196817926,0.002443461,-0.004886922,0.004886922,11196817926,50.007812
11196820165,-1.1437693,-9.954143,0.23449662,11196820165,0.0012217305,-0.004886922,0.0036651916,11196820165,49.92578
11196822404,-1.134198,-9.934999,0.22971097,11196822404,0.0012217305,-0.004886922,0.002443461,11196822404,49.92578
11196824643,-1.1389836,-9.958928,0.22013968,11196824643,0.0012217305,-0.008552114,0.0036651916,11196824643,49.92578
11196826882,-1.1629118,-9.954143,0.20578274,11196826882,0.0012217305,-0.008552114,0.004886922,11196826882,49.92578
11196829119,-1.1533405,-9.954143,0.21535404,11196829119,0.002443461,-0.0061086523,0.004886922,11196829119,49.92578
11196831358,-1.1437693,-9.954143,0.2105684,11196831358,0.002443461,-0.007330383,0.004886922,11196831358,49.92578
11196833596,-1.1246266,-9.954143,0.22492532,11196833596,0.0012217305,-0.007330383,0.002443461,11196833596,49.92578
11196835835,-1.1294123,-9.968499,0.22013968,11196835835,0.002443461,-0.0036651916,0.002443461,11196835835,49.92578
11196838092,-1.119841,-9.954143,0.22492532,11196838092,0.0012217305,-0.004886922,0.0012217305,11196838092,49.953125
11196840330,-1.1389836,-9.954143,0.21535404,11196840330,0.007330383,-0.012217305,0.004886922,11196840330,49.953125
11196842569,-1.1389836,-9.958928,0.22492532,11196842569,0.0061086523,-0.014660766,0.004886922,11196842569,49.953125
11196844808,-1.1437693,-9.958928,0.22971097,11196844808,0,-0.009773844,0.0061086523,11196844808,49.953125
11196847047,-1.134198,-9.954143,0.22971097,11196847047,-0.0036651916,-0.0061086523,0.002443461,11196847047,49.953125
11196849302,-1.1102697,-9.949356,0.22492532,11196849302,-0.002443461,0,0.0012217305,11196849302,49.953125
11196851541,-1.1294123,-9.949356,0.22013968,11196851541,0.0036651916,-0.0012217305,0.004886922,11196851541,49.953125
11196853780,-1.1294123,-9.939785,0.22013968,11196853780,0.0061086523,-0.009773844,0.0036651916,11196853780,49.953125
11196856019,-1.1389836,-9.963714,0.21535404,11196856019,0.008552114,-0.013439035,0.0036651916,11196856019,49.96875
11196858263,-1.134198,-9.944571,0.22013968,11196858263,0.002443461,-0.007330383,0.0036651916,11196858263,49.96875
11196860501,-1.1389836,-9.963714,0.20578274,11196860501,-0.004886922,-0.004886922,0.0012217305,11196860501,49.96875
11196862740,-1.1437693,-9.958928,0.2105684,11196862740,-0.0012217305,-0.0012217305,0.0012217305,11196862740,49.96875
11196864979,-1.1533405,-9.968499,0.21535404,11196864979,0.0012217305,0,0,11196864979,49.96875
11196867645,-1.1437693,-9.958928,0.19621146,11196867645,0.0061086523,-0.0061086523,0.004886922,11196867645,49.96875
11196869465,-1.1437693,-9.963714,0.2009971,11196869465,0.010995574,-0.014660766,0.0061086523,11196869465,49.96875
11196871703,-1.134198,-9.949356,0.19621146,11196871703,-0.0012217305,-0.010995574,0.002443461,11196871703,49.96875
11196873942,-1.1485549,-9.949356,0.22971097,11196873942,-0.0036651916,-0.002443461,0.002443461,11196873942,49.976562
11196876181,-1.1389836,-9.954143,0.2105684,11196876181,-0.0036651916,0,0.0012217305,11196876181,49.976562
11196878415,-1.134198,-9.963714,0.2009971,11196878415,0.0061086523,-0.0061086523,0.0012217305,11196878415,49.976562
11196880654,-1.1150553,-9.963714,0.19621146,11196880654,0.014660766,-0.014660766,0.0061086523,11196880654,49.976562
11196882893,-1.1102697,-9.954143,0.2105684,11196882893,0.010995574,-0.014660766,0.0061086523,11196882893,49.976562
11196885132,-1.134198,-9.949356,0.2009971,11196885132,0.002443461,-0.010995574,0.0061086523,11196885132,49.976562
11196887645,-1.1389836,-9.944571,0.20578274,11196887645,-0.004886922,0.0036651916,0,11196887645,49.976562
11196889628,-1.1150553,-9.958928,0.2105684,11196889628,-0.0036651916,0.0012217305,0.002443461,11196889628,49.976562
11196891867,-1.119841,-9.958928,0.22013968,11196891867,0.0036651916,-0.009773844,0.0036651916,11196891867,49.984375
11196894105,-1.134198,-9.949356,0.20578274,11196894105,0.009773844,-0.013439035,0.004886922,11196894105,49.984375
11196896344,-1.1389836,-9.954143,0.19142582,11196896344,0.0061086523,-0.013439035,0.004886922,11196896344,49.984375
11196898603,-1.1246266,-9.954143,0.21535404,11196898603,-0.0036651916,-0.009773844,0,11196898603,49.984375
11196900842,-1.1246266,-9.949356,0.2105684,11196900842,-0.007330383,0.002443461,0,11196900842,49.984375
11196903080,-1.1246266,-9.944571,0.19621146,11196903080,-0.0012217305,0.002443461,0.0012217305,11196903080,49.984375
11196905319,-1.1246266,-9.958928,0.2009971,11196905319,0.007330383,-0.008552114,0.0036651916,11196905319,49.984375
11196907655,-1.134198,-9.954143,0.2009971,11196907655,0.008552114,-0.014660766,0.007330383,11196907655,49.984375
11196909801,-1.1437693,-9.968499,0.18185452,11196909801,0.0012217305,-0.008552114,0.0036651916,11196909801,49.984375
11196912040,-1.1246266,-9.958928,0.2009971,11196912040,-0.008552114,-0.002443461,0.002443461,11196912040,49.984375
11196914279,-1.1485549,-9.968499,0.19621146,11196914279,-0.009773844,0.0036651916,-0.0012217305,11196914279,49.984375
11196916517,-1.1437693,-9.958928,0.18664017,11196916517,0.0036651916,0.0012217305,0.0012217305,11196916517,49.984375
11196918765,-1.1389836,-9.954143,0.2009971,11196918765,0.010995574,-0.010995574,0.004886922,11196918765,49.984375
11196921004,-1.1246266,-9.930214,0.20578274,11196921004,0.009773844,-0.015882496,0.004886922,11196921004,49.984375
11196923243,-1.1294123,-9.944571,0.20578274,11196923243,0.002443461,-0.007330383,0.0036651916,11196923243,49.984375
11196925481,-1.1294123,-9.958928,0.17706887,11196925481,-0.004886922,0.002443461,0.002443461,11196925481,49.984375
11196927713,-1.1437693,-9.954143,0.18185452,11196927713,-0.002443461,0.0036651916,0.0012217305,11196927713,49.976562
11196929952,-1.1294123,-9.930214,0.20578274,11196929952,0.0061086523,-0.004886922,0.0012217305,11196929952,49.976562
11196932191,-1.1533405,-9.963714,0.2105684,11196932191,0.009773844,-0.010995574,0.004886922,11196932191,49.976562
11196934430,-1.1389836,-9.954143,0.22013968,11196934430,0.0036651916,-0.017104227,0.0061086523,11196934430,49.976562
11196936669,-1.1389836,-9.963714,0.22492532,11196936669,0.0012217305,-0.007330383,0.002443461,11196936669,49.976562
11196938932,-1.134198,-9.949356,0.22013968,11196938932,0.0012217305,0.0012217305,0.004886922,11196938932,49.976562
11196941171,-1.1294123,-9.954143,0.21535404,11196941171,0,-0.004886922,0.0036651916,11196941171,49.976562
11196943410,-1.1533405,-9.958928,0.18664017,11196943410,0.0036651916,-0.004886922,0.0036651916,11196943410,49.976562
11196945649,-1.1246266,-9.954143,0.21535404,11196945649,0,-0.0061086523,0.0036651916,11196945649,49.984375
11196947891,-1.134198,-9.963714,0.20578274,11196947891,0.002443461,-0.004886922,0.0036651916,11196947891,49.984375
11196950130,-1.1581261,-9.949356,0.22971097,11196950130,0.002443461,-0.0012217305,0.004886922,11196950130,49.984375
11196952369,-1.1485549,-9.968499,0.18664017,11196952369,0,-0.0036651916,0.004886922,11196952369,49.984375
11196954608,-1.1294123,-9.973285,0.19621146,11196954608,-0.0012217305,-0.0012217305,0.002443461,11196954608,49.984375
11196956847,-1.1294123,-9.954143,0.2009971,11196956847,0.0012217305,-0.002443461,0.004886922,11196956847,49.984375
11196959081,-1.1389836,-9.939785,0.19621146,11196959081,0.0012217305,-0.0036651916,0.0036651916,11196959081,49.984375
11196961320,-1.119841,-9.954143,0.22492532,11196961320,0.0036651916,-0.004886922,0.004886922,11196961320,49.984375
11196963558,-1.119841,-9.963714,0.19621146,11196963558,0.002443461,-0.004886922,0.0036651916,11196963558,49.933594
11196965797,-1.1294123,-9.968499,0.2105684,11196965797,0,-0.004886922,0.004886922,11196965797,49.933594
11196968051,-1.1246266,-9.958928,0.20578274,11196968051,0.004886922,-0.007330383,0.0036651916,11196968051,49.933594
11196970289,-1.1246266,-9.968499,0.21535404,11196970289,0.0036651916,-0.0061086523,0.002443461,11196970289,49.933594
11196972528,-1.1246266,-9.958928,0.2009971,11196972528,0.002443461,-0.0036651916,0.002443461,11196972528,49.933594
11196974767,-1.119841,-9.939785,0.22013968,11196974767,-0.0012217305,-0.004886922,0.0036651916,11196974767,49.933594
11196977006,-1.1294123,-9.944571,0.2105684,11196977006,0.002443461,-0.0061086523,0.0036651916,11196977006,49.933594
11196979266,-1.1294123,-9.958928,0.2009971,11196979266,0,-0.007330383,0.0012217305,11196979266,49.933594
11196981505,-1.1437693,-9.944571,0.21535404,11196981505,0.002443461,-0.0061086523,0.002443461,11196981505,49.976562
11196983744,-1.134198,-9.954143,0.2009971,11196983744,0.0012217305,-0.0061086523,0.0036651916,11196983744,49.976562
11196985983,-1.1246266,-9.958928,0.19142582,11196985983,0.002443461,-0.0061086523,0.004886922,11196985983,49.976562
11196988219,-1.134198,-9.958928,0.20578274,11196988219,0.004886922,-0.0036651916,0.0036651916,11196988219,49.976562
11196990458,-1.1437693,-9.958928,0.20578274,11196990458,0.0036651916,-0.002443461,0.0036651916,11196990458,49.976562
11196992696,-1.1389836,-9.944571,0.2105684,11196992696,0.002443461,-0.0061086523,0.004886922,11196992696,49.976562
11196994935,-1.134198,-9.954143,0.22492532,11196994935,0.0012217305,-0.004886922,0.002443461,11196994935,49.976562
11196997642,-1.1246266,-9.949356,0.21535404,11196997642,0.0012217305,-0.0036651916,0.004886922,11196997642,49.976562
11196999415,-1.134198,-9.954143,0.21535404,11196999415,0.0012217305,0,0.0012217305,11196999415,49.96875
11197001654,-1.1389836,-9.954143,0.22492532,11197001654,0.004886922,-0.004886922,0.0036651916,11197001654,49.96875
11197003893,-1.1485549,-9.963714,0.20578274,11197003893,0.002443461,-0.004886922,0.0036651916,11197003893,49.96875
11197006131,-1.1389836,-9.949356,0.2009971,11197006131,0.002443461,-0.0036651916,0.0036651916,11197006131,49.96875
11197008380,-1.1389836,-9.958928,0.22492532,11197008380,0.002443461,-0.004886922,0.0036651916,11197008380,49.96875
11197010618,-1.1389836,-9.963714,0.22971097,11197010618,0.002443461,-0.0036651916,0.002443461,11197010618,49.96875
11197012857,-1.1437693,-9.939785,0.2105684,11197012857,0.002443461,-0.0036651916,0.0036651916,11197012857,49.96875
11197015096,-1.134198,-9.958928,0.2105684,11197015096,0.0012217305,-0.007330383,0.0036651916,11197015096,49.96875
11197017648,-1.1246266,-9.954143,0.19621146,11197017648,0.0036651916,-0.0061086523,0.0036651916,11197017648,50
11197019584,-1.1294123,-9.958928,0.23928227,11197019584,0.0036651916,-0.0061086523,0.002443461,11197019584,50
11197021823,-1.1246266,-9.949356,0.22492532,11197021823,0,-0.002443461,0.0061086523,11197021823,50
11197024062,-1.1102697,-9.963714,0.23449662,11197024062,0.002443461,-0.0061086523,0.004886922,11197024062,50
11197026301,-1.134198,-9.944571,0.22492532,11197026301,0.002443461,-0.004886922,0.0036651916,11197026301,50
11197028560,-1.134198,-9.949356,0.22492532,11197028560,0,-0.004886922,0.004886922,11197028560,50
11197030799,-1.1437693,-9.963714,0.22492532,11197030799,0.002443461,-0.0061086523,0.0036651916,11197030799,50
11197033038,-1.1246266,-9.963714,0.23928227,11197033038,0.002443461,-0.007330383,0.0036651916,11197033038,50
11197035277,-1.1437693,-9.954143,0.21535404,11197035277,0.0036651916,-0.0061086523,0.002443461,11197035277,50
11197037683,-1.1294123,-9.968499,0.2009971,11197037683,0,-0.004886922,0.002443461,11197037683,50
11197039759,-1.1485549,-9.949356,0.21535404,11197039759,0.0012217305,-0.002443461,0.002443461,11197039759,50
11197041998,-1.134198,-9.97807,0.21535404,11197041998,0,-0.0036651916,0.0036651916,11197041998,50
11197044237,-1.1246266,-9.958928,0.22013968,11197044237,0,-0.008552114,0.0036651916,11197044237,50
11197046475,-1.1246266,-9.954143,0.2105684,11197046475,0,-0.007330383,0.0012217305,11197046475,50
11197048731,-1.1294123,-9.963714,0.2105684,11197048731,0.0012217305,-0.0036651916,0.0036651916,11197048731,50
11197050970,-1.1150553,-9.958928,0.21535404,11197050970,0.004886922,-0.0061086523,0.002443461,11197050970,50
11197053209,-1.134198,-9.944571,0.22013968,11197053209,0.0012217305,-0.007330383,0.002443461,11197053209,50.007812
11197055447,-1.1485549,-9.958928,0.20578274,11197055447,0.0012217305,-0.007330383,0.002443461,11197055447,50.007812
11197057678,-1.1437693,-9.958928,0.21535404,11197057678,0.002443461,-0.0061086523,0.0036651916,11197057678,50.007812
11197059916,-1.1294123,-9.97807,0.22013968,11197059916,-0.0012217305,-0.004886922,0.0036651916,11197059916,50.007812
11197062155,-1.1389836,-9.958928,0.22492532,11197062155,0.002443461,-0.0061086523,0.0036651916,11197062155,50.007812
11197064394,-1.134198,-9.963714,0.22971097,11197064394,0,-0.0036651916,0.004886922,11197064394,50.007812
11197066633,-1.1389836,-9.958928,0.23928227,11197066633,0.0012217305,-0.004886922,0.002443461,11197066633,50.007812
11197068896,-1.1437693,-9.968499,0.23449662,11197068896,0.0036651916,-0.004886922,0.0012217305,11197068896,50.007812
11197071135,-1.1294123,-9.968499,0.23928227,11197071135,0.0036651916,-0.004886922,0.002443461,11197071135,49.976562
11197073374,-1.1246266,-9.963714,0.22013968,11197073374,0.004886922,-0.004886922,0.002443461,11197073374,49.976562
11197075613,-1.1389836,-9.949356,0.22492532,11197075613,0.002443461,-0.007330383,0.002443461,11197075613,49.976562
11197077843,-1.134198,-9.949356,0.22971097,11197077843,0.0012217305,-0.002443461,0.004886922,11197077843,49.976562
11197080082,-1.119841,-9.939785,0.21535404,11197080082,0.0036651916,-0.0061086523,0.0036651916,11197080082,49.976562
11197082320,-1.134198,-9.963714,0.22971097,11197082320,0.0012217305,-0.0061086523,0.0036651916,11197082320,49.976562
11197084559,-1.1485549,-9.949356,0.22971097,11197084559,0,-0.0036651916,0.002443461,11197084559,49.976562
11197086798,-1.134198,-9.963714,0.22971097,11197086798,0.002443461,-0.004886922,0.002443461,11197086798,49.976562
11197089063,-1.1389836,-9.958928,0.23449662,11197089063,0.004886922,-0.0061086523,0.002443461,11197089063,49.976562
11197091302,-1.1150553,-9.963714,0.22492532,11197091302,0.0012217305,-0.0061086523,0.0036651916,11197091302,49.976562
11197093541,-1.1246266,-9.954143,0.22013968,11197093541,0.0036651916,-0.0061086523,0.0036651916,11197093541,49.976562
11197095780,-1.1485549,-9.954143,0.22492532,11197095780,0.002443461,-0.0061086523,0.0036651916,11197095780,49.976562
11197098008,-1.1437693,-9.958928,0.2105684,11197098008,0.002443461,-0.0061086523,0.0036651916,11197098008,49.976562
11197100247,-1.1389836,-9.973285,0.2009971,11197100247,0.0012217305,-0.0036651916,0.0036651916,11197100247,49.976562
11197102486,-1.1389836,-9.968499,0.22013968,11197102486,0,-0.004886922,0.0012217305,11197102486,49.976562
11197104724,-1.1629118,-9.968499,0.2536392,11197104724,0.002443461,-0.004886922,0.0036651916,11197104724,49.976562
11197106963,-1.1533405,-9.939785,0.22013968,11197106963,0.002443461,-0.0061086523,0.002443461,11197106963,49.984375
11197109224,-1.1437693,-9.949356,0.22492532,11197109224,0.0012217305,-0.004886922,0.002443461,11197109224,49.984375
11197111463,-1.1581261,-9.968499,0.22492532,11197111463,0,-0.0036651916,0.0012217305,11197111463,49.984375
11197113702,-1.1294123,-9.958928,0.2105684,11197113702,0.0012217305,-0.0061086523,0.002443461,11197113702,49.984375
11197115940,-1.1389836,-9.954143,0.2105684,11197115940,0,-0.0061086523,0.0036651916,11197115940,49.984375
11197118180,-1.1437693,-9.949356,0.21535404,11197118180,0.0012217305,-0.007330383,0.0036651916,11197118180,49.984375
11197120419,-1.1437693,-9.973285,0.2440679,11197120419,0,-0.0061086523,0.002443461,11197120419,49.984375
11197122657,-1.134198,-9.954143,0.22492532,11197122657,0.0036651916,-0.0036651916,0.0036651916,11197122657,49.984375
11197124896,-1.1294123,-9.944571,0.22492532,11197124896,0.0036651916,-0.0061086523,0.0036651916,11197124896,50.007812
11197127135,-1.1581261,-9.958928,0.20578274,11197127135,-0.002443461,-0.004886922,0.002443461,11197127135,50.007812
11197129396,-1.1485549,-9.954143,0.2009971,11197129396,0,-0.002443461,0.0012217305,11197129396,50.007812
11197131634,-1.134198,-9.954143,0.2105684,11197131634,0.0036651916,-0.0036651916,0.002443461,11197131634,50.007812
11197133873,-1.1533405,-9.939785,0.22013968,11197133873,0.0036651916,-0.0061086523,0.0036651916,11197133873,50.007812
11197136112,-1.1533405,-9.968499,0.2105684,11197136112,0.0012217305,-0.004886922,0.004886922,11197136112,50.007812
11197138345,-1.1437693,-9.963714,0.22492532,11197138345,0,-0.004886922,0.0036651916,11197138345,50.007812
11197140584,-1.1485549,-9.954143,0.22971097,11197140584,0,-0.0061086523,0.002443461,11197140584,50.007812
11197142823,-1.1389836,-9.954143,0.21535404,11197142823,0.002443461,-0.0036651916,0.0036651916,11197142823,49.91797
11197145062,-1.1533405,-9.968499,0.20578274,11197145062,0.0036651916,-0.004886922,0.004886922,11197145062,49.91797
11197147680,-1.1437693,-9.949356,0.22971097,11197147680,0.0012217305,-0.007330383,0.0012217305,11197147680,49.91797
11197149546,-1.1581261,-9.954143,0.22971097,11197149546,0.0012217305,-0.0036651916,0.002443461,11197149546,49.91797
11197151785,-1.1389836,-9.944571,0.23449662,11197151785,-0.0012217305,-0.004886922,0.002443461,11197151785,49.91797
11197154024,-1.1150553,-9.968499,0.22013968,11197154024,0,-0.004886922,0.004886922,11197154024,49.91797
11197156263,-1.1389836,-9.954143,0.23449662,11197156263,0.0012217305,-0.0061086523,0.002443461,11197156263,49.91797
11197158521,-1.1150553,-9.963714,0.22971097,11197158521,0.002443461,-0.0061086523,0.002443461,11197158521,49.91797
11197160760,-1.1389836,-9.954143,0.23449662,11197160760,0.0012217305,-0.0061086523,0.002443461,11197160760,49.992188
11197162999,-1.1437693,-9.939785,0.23449662,11197162999,0.002443461,-0.004886922,0.0036651916,11197162999,49.992188
11197165238,-1.1246266,-9.954143,0.22492532,11197165238,0.002443461,-0.007330383,0.0036651916,11197165238,49.992188
11197167678,-1.1389836,-9.958928,0.22013968,11197167678,0.0036651916,-0.007330383,0.0036651916,11197167678,49.992188
11197169731,-1.1389836,-9.939785,0.23928227,11197169731,0.002443461,-0.008552114,0.0036651916,11197169731,49.992188
11197171970,-1.1246266,-9.963714,0.23449662,11197171970,0.0012217305,-0.008552114,0.002443461,11197171970,49.992188
11197174208,-1.134198,-9.958928,0.23928227,11197174208,0.0036651916,-0.007330383,0.004886922,11197174208,49.992188
11197176447,-1.1246266,-9.963714,0.22971097,11197176447,0.002443461,-0.0036651916,0.0036651916,11197176447,49.992188
11197178685,-1.1437693,-9.963714,0.23449662,11197178685,0.0012217305,-0.007330383,0.002443461,11197178685,49.96875
11197180924,-1.1437693,-9.963714,0.22013968,11197180924,0.002443461,-0.007330383,0.004886922,11197180924,49.96875
11197183163,-1.1485549,-9.954143,0.22492532,11197183163,0.002443461,-0.004886922,0.0012217305,11197183163,49.96875
11197185402,-1.1485549,-9.958928,0.22971097,11197185402,0.0012217305,-0.007330383,0.002443461,11197185402,49.96875
11197187683,-1.1533405,-9.949356,0.23449662,11197187683,0,-0.0036651916,0.0036651916,11197187683,49.96875
11197189899,-1.1629118,-9.958928,0.2009971,11197189899,-0.002443461,-0.0036651916,0.002443461,11197189899,49.96875
11197192138,-1.1485549,-9.949356,0.22492532,11197192138,0.0036651916,-0.007330383,0.0012217305,11197192138,49.96875
11197194377,-1.1437693,-9.968499,0.23449662,11197194377,0.0012217305,-0.0036651916,0.002443461,11197194377,49.96875
11197196615,-1.1389836,-9.958928,0.23928227,11197196615,0,-0.0036651916,0.002443461,11197196615,49.92578
11197198858,-1.1485549,-9.963714,0.22971097,11197198858,0.002443461,-0.004886922,0.004886922,11197198858,49.92578
11197201097,-1.1533405,-9.958928,0.22971097,11197201097,0,-0.0061086523,0.002443461,11197201097,49.92578
11197203336,-1.1389836,-9.963714,0.22013968,11197203336,0.002443461,-0.008552114,0.004886922,11197203336,49.92578
11197205575,-1.119841,-9.944571,0.23449662,11197205575,0.0012217305,-0.008552114,0.0036651916,11197205575,49.92578
11197207816,-1.1294123,-9.958928,0.21535404,11197207816,0.004886922,-0.007330383,0.0036651916,11197207816,49.92578
11197210055,-1.1485549,-9.954143,0.22492532,11197210055,0.0036651916,-0.0061086523,0.004886922,11197210055,49.92578
11197212293,-1.1294123,-9.963714,0.22013968,11197212293,0.002443461,-0.0036651916,0.004886922,11197212293,49.92578
11197214532,-1.1246266,-9.958928,0.22013968,11197214532,0.0012217305,-0.004886922,0.0036651916,11197214532,49.992188
11197216771,-1.119841,-9.954143,0.22013968,11197216771,0.002443461,-0.007330383,0.0036651916,11197216771,49.992188
11197219024,-1.1389836,-9.963714,0.21535404,11197219024,0.0036651916,-0.0061086523,0.002443461,11197219024,49.992188
11197221262,-1.1294123,-9.958928,0.22971097,11197221262,0.0036651916,-0.0061086523,0.0012217305,11197221262,49.992188
11197223501,-1.1246266,-9.954143,0.22971097,11197223501,0.002443461,-0.0036651916,0.002443461,11197223501,49.992188
11197225740,-1.1246266,-9.949356,0.22013968,11197225740,0.002443461,-0.002443461,0.0036651916,11197225740,49.992188
11197227972,-1.119841,-9.963714,0.22492532,11197227972,0,0,0.0036651916,11197227972,49.992188
11197230211,-1.1102697,-9.954143,0.22492532,11197230211,0.0012217305,-0.0061086523,0.004886922,11197230211,49.992188
11197232450,-1.1533405,-9.949356,0.23928227,11197232450,0.0012217305,-0.004886922,0.002443461,11197232450,49.953125
11197234688,-1.1533405,-9.944571,0.22971097,11197234688,0,-0.004886922,0.0012217305,11197234688,49.953125
11197236927,-1.1437693,-9.954143,0.22013968,11197236927,0.002443461,-0.007330383,0.004886922,11197236927,49.953125
11197239190,-1.1485549,-9.963714,0.22013968,11197239190,0.002443461,-0.008552114,0.002443461,11197239190,49.953125
11197241429,-1.1533405,-9.968499,0.22492532,11197241429,0,-0.002443461,0.0036651916,11197241429,49.953125
11197243667,-1.1485549,-9.944571,0.23449662,11197243667,0.002443461,-0.007330383,0.004886922,11197243667,49.953125
11197245906,-1.134198,-9.958928,0.22971097,11197245906,0,-0.009773844,0.004886922,11197245906,49.953125
11197248156,-1.134198,-9.958928,0.2105684,11197248156,0,-0.0061086523,0.0036651916,11197248156,49.953125
11197250394,-1.134198,-9.954143,0.2105684,11197250394,0.0012217305,-0.0061086523,0.002443461,11197250394,49.976562
11197252633,-1.1485549,-9.963714,0.2440679,11197252633,0.0012217305,-0.009773844,0.002443461,11197252633,49.976562
11197254872,-1.1389836,-9.958928,0.2536392,11197254872,0.0061086523,-0.007330383,0.002443461,11197254872,49.976562
11197257111,-1.134198,-9.954143,0.22971097,11197257111,0.002443461,-0.0061086523,0.004886922,11197257111,49.976562
11197259350,-1.1389836,-9.954143,0.21535404,11197259350,0.0012217305,-0.007330383,0.002443461,11197259350,49.976562
11197261589,-1.1389836,-9.963714,0.22971097,11197261589,0.002443461,-0.0061086523,0.0036651916,11197261589,49.976562
11197263828,-1.1246266,-9.97807,0.22013968,11197263828,0.0012217305,-0.007330383,0.002443461,11197263828,49.976562
11197266066,-1.134198,-9.944571,0.22492532,11197266066,0.0012217305,-0.007330383,0.002443461,11197266066,49.976562
11197268302,-1.134198,-9.949356,0.22013968,11197268302,0,-0.007330383,0.002443461,11197268302,50.007812
11197270541,-1.134198,-9.944571,0.19142582,11197270541,0,-0.007330383,0.0036651916,11197270541,50.007812
11197272780,-1.1389836,-9.949356,0.2105684,11197272780,0.0012217305,-0.008552114,0.004886922,11197272780,50.007812
11197275019,-1.119841,-9.958928,0.22492532,11197275019,-0.0012217305,-0.008552114,0.002443461,11197275019,50.007812
11197277680,-1.1150553,-9.963714,0.2105684,11197277680,0.0036651916,-0.007330383,0.0036651916,11197277680,50.007812
11197279523,-1.1246266,-9.939785,0.22013968,11197279523,0.002443461,-0.0012217305,0.002443461,11197279523,50.007812
11197281762,-1.1294123,-9.968499,0.23449662,11197281762,0,-0.0061086523,0.004886922,11197281762,50.007812
11197284000,-1.1294123,-9.973285,0.22971097,11197284000,0,-0.004886922,0.0036651916,11197284000,50.007812
11197286239,-1.134198,-9.963714,0.21535404,11197286239,0.0012217305,-0.0036651916,0.002443461,11197286239,49.984375
11197288470,-1.1294123,-9.963714,0.2009971,11197288470,0.0012217305,-0.007330383,0.002443461,11197288470,49.984375
11197290709,-1.1437693,-9.968499,0.2009971,11197290709,0.0012217305,-0.007330383,0.0036651916,11197290709,49.984375
11197292947,-1.1246266,-9.954143,0.23449662,11197292947,0.0012217305,-0.002443461,0.002443461,11197292947,49.984375
11197295186,-1.119841,-9.954143,0.22971097,11197295186,0.002443461,-0.004886922,0.004886922,11197295186,49.984375
11197297640,-1.1389836,-9.963714,0.21535404,11197297640,0.0036651916,-0.009773844,0.004886922,11197297640,49.984375
11197299693,-1.134198,-9.973285,0.22492532,11197299693,0.0012217305,-0.0061086523,0.004886922,11197299693,49.984375
11197301932,-1.1150553,-9.954143,0.2105684,11197301932,0,-0.0061086523,0.002443461,11197301932,49.984375
11197304170,-1.134198,-9.939785,0.22492532,11197304170,0.0012217305,-0.007330383,0.0012217305,11197304170,49.960938
11197306409,-1.1485549,-9.949356,0.2105684,11197306409,0.0036651916,-0.007330383,0.002443461,11197306409,49.960938
11197308640,-1.1437693,-9.958928,0.21535404,11197308640,0.0012217305,-0.007330383,0.004886922,11197308640,49.960938
11197310879,-1.1246266,-9.963714,0.22492532,11197310879,0.0012217305,-0.0061086523,0.002443461,11197310879,49.960938
11197313118,-1.134198,-9.958928,0.22492532,11197313118,0,-0.004886922,0.004886922,11197313118,49.960938
11197315356,-1.1150553,-9.954143,0.22013968,11197315356,0.002443461,-0.007330383,0.0036651916,11197315356,49.960938
11197317646,-1.1150553,-9.949356,0.22971097,11197317646,0.002443461,-0.004886922,0.0036651916,11197317646,49.960938
11197319839,-1.1389836,-9.939785,0.22013968,11197319839,0.0036651916,-0.0061086523,0.004886922,11197319839,49.960938
11197322077,-1.1437693,-9.944571,0.22013968,11197322077,0,-0.007330383,0.004886922,11197322077,50.01172
11197324316,-1.1437693,-9.944571,0.22971097,11197324316,0,-0.008552114,0.0036651916,11197324316,50.01172
11197326555,-1.1581261,-9.958928,0.2105684,11197326555,0.0036651916,-0.008552114,0.002443461,11197326555,50.01172
11197328811,-1.1485549,-9.949356,0.20578274,11197328811,-0.0012217305,-0.0061086523,0.0036651916,11197328811,50.01172
11197331049,-1.1485549,-9.958928,0.22013968,11197331049,0,-0.004886922,0.0036651916,11197331049,50.01172
11197333288,-1.1533405,-9.954143,0.21535404,11197333288,0.002443461,-0.004886922,0.0036651916,11197333288,50.01172
11197335527,-1.1533405,-9.97807,0.2105684,11197335527,0.0036651916,-0.0061086523,0.004886922,11197335527,50.01172
11197337786,-1.1485549,-9.949356,0.23928227,11197337786,0,-0.007330383,0.004886922,11197337786,50.01172
11197340025,-1.1294123,-9.944571,0.20578274,11197340025,0.0036651916,-0.0061086523,0.0036651916,11197340025,49.95703
11197342264,-1.119841,-9.954143,0.22013968,11197342264,0.0036651916,-0.008552114,0.0012217305,11197342264,49.95703
11197344503,-1.119841,-9.949356,0.21535404,11197344503,0.002443461,-0.007330383,0.0036651916,11197344503,49.95703
11197346742,-1.134198,-9.954143,0.19621146,11197346742,0,-0.0061086523,0.002443461,11197346742,49.95703
11197348978,-1.1102697,-9.963714,0.20578274,11197348978,0.0012217305,-0.0061086523,0.0012217305,11197348978,49.95703
11197351217,-1.105484,-9.973285,0.19621146,11197351217,0.0012217305,-0.004886922,0.0036651916,11197351217,49.95703
11197353455,-1.1150553,-9.963714,0.20578274,11197353455,0.002443461,-0.009773844,0.004886922,11197353455,49.95703
11197355694,-1.105484,-9.963714,0.21535404,11197355694,0.0012217305,-0.0061086523,0.004886922,11197355694,49.95703
11197357948,-1.1389836,-9.944571,0.2009971,11197357948,0.0012217305,-0.0061086523,0.002443461,11197357948,49.976562
11197360186,-1.1294123,-9.954143,0.2009971,11197360186,0,-0.0061086523,0.004886922,11197360186,49.976562
11197362425,-1.119841,-9.934999,0.2105684,11197362425,0.0036651916,-0.0061086523,0.0012217305,11197362425,49.976562
11197364664,-1.134198,-9.954143,0.21535404,11197364664,0.0036651916,-0.0036651916,0.002443461,11197364664,49.976562
11197366903,-1.1246266,-9.954143,0.2009971,11197366903,0.0012217305,-0.0036651916,0.0012217305,11197366903,49.976562
11197369140,-1.1485549,-9.949356,0.22013968,11197369140,0.002443461,-0.004886922,0.0036651916,11197369140,49.976562
11197371379,-1.1389836,-9.954143,0.22971097,11197371379,0.0012217305,-0.004886922,0.0036651916,11197371379,49.976562
11197373618,-1.1389836,-9.949356,0.22492532,11197373618,-0.002443461,-0.004886922,0.0036651916,11197373618,49.976562
11197375857,-1.134198,-9.939785,0.22492532,11197375857,0.002443461,-0.007330383,0.0036651916,11197375857,49.96875
11197378123,-1.1485549,-9.963714,0.20578274,11197378123,0.002443461,-0.004886922,0.002443461,11197378123,49.96875
11197380361,-1.1389836,-9.949356,0.2105684,11197380361,0,-0.002443461,0.002443461,11197380361,49.96875
11197382600,-1.1389836,-9.954143,0.2105684,11197382600,0.0012217305,-0.007330383,0.0036651916,11197382600,49.96875
11197384839,-1.1389836,-9.963714,0.2105684,11197384839,0.002443461,-0.0036651916,0.002443461,11197384839,49.96875
11197387078,-1.1389836,-9.968499,0.22013968,11197387078,0.002443461,0,0.002443461,11197387078,49.96875
11197389315,-1.134198,-9.954143,0.21535404,11197389315,0.0036651916,-0.007330383,0.002443461,11197389315,49.96875
11197391554,-1.1246266,-9.954143,0.19621146,11197391554,0.002443461,-0.0061086523,0.002443461,11197391554,49.96875
11197393793,-1.134198,-9.958928,0.22013968,11197393793,0.0012217305,-0.0061086523,0.0012217305,11197393793,50
11197396031,-1.134198,-9.973285,0.2105684,11197396031,0.0036651916,-0.004886922,0.0036651916,11197396031,50
11197398284,-1.119841,-9.958928,0.2440679,11197398284,0.002443461,-0.0061086523,0.0036651916,11197398284,50
11197400523,-1.1102697,-9.958928,0.21535404,11197400523,0.0012217305,-0.007330383,0.002443461,11197400523,50
11197402761,-1.134198,-9.963714,0.22971097,11197402761,0.002443461,-0.0061086523,0.0036651916,11197402761,50
11197405000,-1.119841,-9.97807,0.2105684,11197405000,0,-0.007330383,0.002443461,11197405000,50
11197407654,-1.1294123,-9.968499,0.21535404,11197407654,0.002443461,-0.0061086523,0.0036651916,11197407654,50
11197409474,-1.119841,-9.963714,0.22971097,11197409474,0.0036651916,-0.002443461,0.002443461,11197409474,50
11197411712,-1.119841,-9.963714,0.22492532,11197411712,0.004886922,-0.0061086523,0,11197411712,49.976562
11197413951,-1.119841,-9.944571,0.22013968,11197413951,0.002443461,-0.0061086523,0.0012217305,11197413951,49.976562
11197416190,-1.1437693,-9.968499,0.2105684,11197416190,0.0012217305,-0.008552114,0.0036651916,11197416190,49.976562
11197418439,-1.1485549,-9.963714,0.21535404,11197418439,0.0012217305,-0.0061086523,0.002443461,11197418439,49.976562
11197420678,-1.134198,-9.954143,0.2009971,11197420678,0.0036651916,-0.007330383,0.0036651916,11197420678,49.976562
11197422917,-1.134198,-9.958928,0.21535404,11197422917,0.002443461,-0.009773844,0.0036651916,11197422917,49.976562
11197425156,-1.1246266,-9.954143,0.21535404,11197425156,0.0012217305,-0.007330383,0.0036651916,11197425156,49.976562
11197427645,-1.1246266,-9.973285,0.22013968,11197427645,0.0012217305,-0.0061086523,0.002443461,11197427645,49.976562
11197429651,-1.1533405,-9.968499,0.20578274,11197429651,0.002443461,-0.008552114,0.0012217305,11197429651,49.984375
11197431890,-1.1389836,-9.963714,0.2105684,11197431890,0.0012217305,-0.004886922,0.002443461,11197431890,49.984375
11197434129,-1.1485549,-9.963714,0.22013968,11197434129,0.002443461,-0.004886922,0.004886922,11197434129,49.984375
11197436368,-1.1294123,-9.963714,0.2105684,11197436368,0.002443461,-0.007330383,0.0036651916,11197436368,49.984375
11197438604,-1.1389836,-9.958928,0.22971097,11197438604,0.0012217305,-0.007330383,0.0036651916,11197438604,49.984375
11197440843,-1.134198,-9.958928,0.21535404,11197440843,-0.002443461,0.0012217305,0.0012217305,11197440843,49.984375
11197443081,-1.1485549,-9.963714,0.20578274,11197443081,-0.002443461,0.0012217305,0,11197443081,49.984375
11197445320,-1.1533405,-9.954143,0.22013968,11197445320,0.0012217305,-0.002443461,0.0012217305,11197445320,49.984375
11197447643,-1.1389836,-9.958928,0.22013968,11197447643,0.0061086523,-0.010995574,0.0036651916,11197447643,49.953125
11197449812,-1.1437693,-9.939785,0.21535404,11197449812,0.004886922,-0.013439035,0.004886922,11197449812,49.953125
11197452051,-1.1485549,-9.939785,0.22013968,11197452051,0,-0.007330383,0.0036651916,11197452051,49.953125
11197454290,-1.1102697,-9.963714,0.22013968,11197454290,-0.002443461,-0.002443461,0.0012217305,11197454290,49.953125
11197456529,-1.1294123,-9.973285,0.2009971,11197456529,-0.002443461,0,0.0012217305,11197456529,49.953125
11197458766,-1.1246266,-9.958928,0.2105684,11197458766,0.002443461,-0.002443461,0.0036651916,11197458766,49.953125
11197461005,-1.1294123,-9.968499,0.2009971,11197461005,0.0061086523,-0.008552114,0.0036651916,11197461005,49.953125
11197463244,-1.134198,-9.954143,0.22013968,11197463244,0.0061086523,-0.008552114,0.004886922,11197463244,49.953125
11197465482,-1.1581261,-9.954143,0.2105684,11197465482,0,-0.007330383,0.004886922,11197465482,49.984375
11197467750,-1.1581261,-9.954143,0.20578274,11197467750,-0.0061086523,-0.0012217305,0.002443461,11197467750,49.984375
11197469989,-1.134198,-9.958928,0.19142582,11197469989,-0.0012217305,0.0012217305,0.0012217305,11197469989,49.984375
11197472228,-1.1389836,-9.958928,0.2105684,11197472228,0.002443461,-0.002443461,0.002443461,11197472228,49.984375
11197474467,-1.1389836,-9.954143,0.20578274,11197474467,0.007330383,-0.012217305,0.004886922,11197474467,49.984375
11197476706,-1.1437693,-9.949356,0.20578274,11197476706,0.008552114,-0.010995574,0.0061086523,11197476706,49.984375
11197478939,-1.1389836,-9.968499,0.22971097,11197478939,0,-0.004886922,0.002443461,11197478939,49.984375
11197481178,-1.1294123,-9.949356,0.22013968,11197481178,-0.0061086523,-0.0036651916,0.002443461,11197481178,49.984375
11197483416,-1.1437693,-9.958928,0.19142582,11197483416,-0.0012217305,0,0,11197483416,49.984375
11197485655,-1.1294123,-9.963714,0.22013968,11197485655,0.002443461,-0.004886922,0.002443461,11197485655,49.984375
11197487912,-1.1389836,-9.954143,0.21535404,11197487912,0.010995574,-0.015882496,0.002443461,11197487912,49.984375
11197490151,-1.119841,-9.973285,0.2009971,11197490151,0.008552114,-0.019547688,0.0036651916,11197490151,49.984375
11197492389,-1.1246266,-9.963714,0.20578274,11197492389,-0.0012217305,-0.0036651916,0.004886922,11197492389,49.984375
11197494628,-1.134198,-9.944571,0.19621146,11197494628,-0.007330383,0.002443461,-0.0012217305,11197494628,49.984375
11197496867,-1.1150553,-9.963714,0.21535404,11197496867,-0.0012217305,0,0.0012217305,11197496867,49.984375
11197499102,-1.1246266,-9.97807,0.21535404,11197499102,0.008552114,-0.004886922,0.004886922,11197499102,49.984375
11197501341,-1.1246266,-9.949356,0.2009971,11197501341,0.009773844,-0.012217305,0.007330383,11197501341,49.960938
11197503580,-1.134198,-9.939785,0.21535404,11197503580,0.002443461,-0.013439035,0.004886922,11197503580,49.960938
11197505819,-1.134198,-9.958928,0.22013968,11197505819,-0.0061086523,-0.0036651916,0.002443461,11197505819,49.960938
11197508065,-1.1389836,-9.954143,0.2009971,11197508065,-0.007330383,0.0061086523,-0.0012217305,11197508065,49.960938
11197510303,-1.134198,-9.958928,0.18664017,11197510303,0.0012217305,0.002443461,0.0012217305,11197510303,49.960938
11197512542,-1.1294123,-9.963714,0.20578274,11197512542,0.009773844,-0.009773844,0.004886922,11197512542,49.960938
11197514781,-1.1389836,-9.968499,0.18185452,11197514781,0.008552114,-0.017104227,0.0061086523,11197514781,49.960938
11197517020,-1.1485549,-9.973285,0.22971097,11197517020,0.002443461,-0.007330383,0.0036651916,11197517020,49.960938
11197519274,-1.1581261,-9.939785,0.2105684,11197519274,-0.007330383,0.0036651916,0.002443461,11197519274,49.976562
11197521513,-1.1437693,-9.968499,0.20578274,11197521513,-0.002443461,0.002443461,0,11197521513,49.976562
11197523752,-1.1389836,-9.958928,0.2009971,11197523752,0.0061086523,0.0012217305,0.002443461,11197523752,49.976562
11197525991,-1.1485549,-9.949356,0.2009971,11197525991,0.010995574,-0.007330383,0.0061086523,11197525991,49.976562
11197528243,-1.1294123,-9.949356,0.19621146,11197528243,0.007330383,-0.014660766,0.004886922,11197528243,49.976562
11197530482,-1.134198,-9.968499,0.20578274,11197530482,-0.0012217305,-0.008552114,0.002443461,11197530482,49.976562
11197532721,-1.1485549,-9.958928,0.2105684,11197532721,-0.009773844,0.004886922,0,11197532721,49.976562
11197534960,-1.1437693,-9.963714,0.20578274,11197534960,-0.0061086523,0.004886922,0.0012217305,11197534960,49.976562
11197537647,-1.1389836,-9.958928,0.22013968,11197537647,0.0012217305,-0.0036651916,0.0012217305,11197537647,49.953125
11197539443,-1.1389836,-9.949356,0.2105684,11197539443,0.002443461,-0.0036651916,0.002443461,11197539443,49.953125
11197541682,-1.1437693,-9.954143,0.22492532,11197541682,0.0012217305,-0.004886922,0.002443461,11197541682,49.953125
11197543921,-1.1246266,-9.958928,0.22013968,11197543921,0,-0.0061086523,0.002443461,11197543921,49.953125
11197546160,-1.1246266,-9.963714,0.23449662,11197546160,0.0036651916,-0.0061086523,0.0036651916,11197546160,49.953125
11197548396,-1.1294123,-9.968499,0.23449662,11197548396,0.0012217305,-0.0061086523,0.0061086523,11197548396,49.953125
11197550635,-1.1437693,-9.954143,0.22013968,11197550635,0.0012217305,-0.0036651916,0.0036651916,11197550635,49.953125
11197552873,-1.1294123,-9.963714,0.23449662,11197552873,0.0036651916,-0.007330383,0.002443461,11197552873,49.953125
11197555112,-1.1389836,-9.954143,0.2009971,11197555112,0.0012217305,-0.004886922,0.0036651916,11197555112,49.976562
11197557677,-1.1533405,-9.949356,0.22492532,11197557677,0,-0.0061086523,0.002443461,11197557677,49.976562
11197559613,-1.1581261,-9.949356,0.22492532,11197559613,0.0036651916,-0.0061086523,0.0036651916,11197559613,49.976562
11197561852,-1.1389836,-9.954143,0.22971097,11197561852,0.0036651916,-0.002443461,0.0036651916,11197561852,49.976562
11197564091,-1.1389836,-9.973285,0.23449662,11197564091,0.002443461,-0.0036651916,0.0036651916,11197564091,49.976562
11197566330,-1.1485549,-9.963714,0.22013968,11197566330,0.0012217305,-0.004886922,0.0012217305,11197566330,49.976562
11197568567,-1.1485549,-9.968499,0.22013968,11197568567,0,-0.007330383,0.002443461,11197568567,49.976562
11197570806,-1.1437693,-9.954143,0.21535404,11197570806,-0.0012217305,-0.004886922,0.0036651916,11197570806,49.976562
11197573044,-1.1485549,-9.954143,0.21535404,11197573044,0.002443461,-0.0036651916,0.0012217305,11197573044,49.976562
11197575283,-1.134198,-9.954143,0.22013968,11197575283,-0.0012217305,-0.002443461,0.0012217305,11197575283,49.976562
11197577680,-1.1437693,-9.958928,0.2009971,11197577680,0.0012217305,-0.0061086523,0.0036651916,11197577680,49.976562
11197579779,-1.1437693,-9.963714,0.22971097,11197579779,0.004886922,-0.007330383,0.0012217305,11197579779,49.976562
11197582018,-1.1485549,-9.958928,0.2440679,11197582018,0.0012217305,-0.0036651916,0.002443461,11197582018,49.976562
11197584257,-1.134198,-9.958928,0.2009971,11197584257,0,-0.0061086523,0,11197584257,49.976562
11197586496,-1.134198,-9.958928,0.22013968,11197586496,0,-0.0036651916,0.002443461,11197586496,49.976562
11197588733,-1.1485549,-9.963714,0.2105684,11197588733,0,-0.004886922,0.002443461,11197588733,49.976562
11197590972,-1.134198,-9.954143,0.22013968,11197590972,0.004886922,-0.004886922,0.0012217305,11197590972,49.953125
11197593211,-1.1485549,-9.954143,0.2105684,11197593211,0.002443461,-0.0061086523,0.002443461,11197593211,49.953125
11197595449,-1.1246266,-9.973285,0.2105684,11197595449,0.0036651916,-0.004886922,0.0036651916,11197595449,49.953125
11197597702,-1.119841,-9.954143,0.2105684,11197597702,0.002443461,-0.004886922,0.0036651916,11197597702,49.953125
11197599941,-1.105484,-9.954143,0.21535404,11197599941,0.002443461,-0.004886922,0.002443461,11197599941,49.953125
11197602179,-1.1246266,-9.954143,0.2105684,11197602179,0.0036651916,-0.007330383,0.002443461,11197602179,49.953125
11197604418,-1.1294123,-9.958928,0.22492532,11197604418,0.002443461,-0.007330383,0.002443461,11197604418,49.953125
11197606657,-1.1389836,-9.958928,0.22013968,11197606657,0.002443461,-0.0061086523,0.0036651916,11197606657,49.953125
11197608912,-1.1485549,-9.958928,0.2440679,11197608912,0.0061086523,-0.004886922,0.0036651916,11197608912,49.92578
11197611151,-1.1485549,-9.958928,0.22492532,11197611151,0.004886922,-0.0036651916,0.0036651916,11197611151,49.92578
11197613390,-1.1533405,-9.963714,0.19621146,11197613390,0.002443461,-0.004886922,0.002443461,11197613390,49.92578
11197615629,-1.1389836,-9.963714,0.22971097,11197615629,0,-0.0061086523,0.0036651916,11197615629,49.92578
11197617866,-1.1389836,-9.963714,0.22492532,11197617866,0.0012217305,-0.004886922,0.004886922,11197617866,49.92578
11197620105,-1.1581261,-9.949356,0.22492532,11197620105,-0.0012217305,-0.0036651916,0.002443461,11197620105,49.92578
11197622344,-1.1389836,-9.963714,0.22492532,11197622344,-0.0012217305,-0.004886922,0.0036651916,11197622344,49.92578
11197624582,-1.1485549,-9.954143,0.22013968,11197624582,0.002443461,-0.004886922,0.002443461,11197624582,49.92578
11197626821,-1.1437693,-9.958928,0.21535404,11197626821,-0.002443461,-0.0061086523,0.002443461,11197626821,49.976562
11197629070,-1.1389836,-9.963714,0.23928227,11197629070,0.0036651916,-0.0036651916,0.002443461,11197629070,49.976562
11197631309,-1.119841,-9.958928,0.22971097,11197631309,0.002443461,-0.002443461,0.004886922,11197631309,49.976562
11197633548,-1.1581261,-9.949356,0.23449662,11197633548,0.0012217305,-0.0061086523,0.0036651916,11197633548,49.976562
11197635787,-1.1437693,-9.958928,0.22492532,11197635787,0,-0.0036651916,0.002443461,11197635787,49.976562
11197638041,-1.1389836,-9.944571,0.2632105,11197638041,-0.002443461,-0.008552114,0.0036651916,11197638041,49.976562
11197640280,-1.1246266,-9.958928,0.22492532,11197640280,-0.0012217305,-0.004886922,0.0036651916,11197640280,49.976562
11197642519,-1.134198,-9.958928,0.22492532,11197642519,0.0036651916,-0.004886922,0.002443461,11197642519,49.976562
11197644757,-1.134198,-9.958928,0.22013968,11197644757,0,-0.007330383,0.0036651916,11197644757,49.992188
11197646996,-1.1485549,-9.954143,0.22492532,11197646996,0.0012217305,-0.004886922,0.004886922,11197646996,49.992188
11197649234,-1.134198,-9.958928,0.21535404,11197649234,-0.0012217305,-0.004886922,0.002443461,11197649234,49.992188
11197651473,-1.1437693,-9.949356,0.22971097,11197651473,0,-0.007330383,0.0036651916,11197651473,49.992188
11197653712,-1.119841,-9.954143,0.22492532,11197653712,0.0012217305,-0.004886922,0.002443461,11197653712,49.992188
11197655951,-1.1389836,-9.973285,0.22971097,11197655951,0.0012217305,-0.004886922,0.002443461,11197655951,49.992188
11197658203,-1.1533405,-9.963714,0.23449662,11197658203,0.0012217305,-0.007330383,0.002443461,11197658203,49.992188
11197660442,-1.1437693,-9.958928,0.21535404,11197660442,0.0036651916,-0.004886922,0.004886922,11197660442,49.992188
11197662681,-1.1389836,-9.958928,0.22013968,11197662681,0.0036651916,-0.004886922,0.0036651916,11197662681,49.953125
11197664920,-1.1294123,-9.958928,0.22971097,11197664920,0.004886922,-0.008552114,0.002443461,11197664920,49.953125
11197667158,-1.1246266,-9.958928,0.22492532,11197667158,0.002443461,-0.007330383,0.002443461,11197667158,49.953125
11197669399,-1.1437693,-9.963714,0.22492532,11197669399,0.002443461,-0.010995574,0.002443461,11197669399,49.953125
11197671637,-1.1294123,-9.954143,0.22492532,11197671637,0,-0.008552114,0.0036651916,11197671637,49.953125
11197673876,-1.1150553,-9.954143,0.24885355,11197673876,-0.0012217305,-0.0061086523,0.0012217305,11197673876,49.953125
11197676115,-1.119841,-9.958928,0.23928227,11197676115,0.0036651916,-0.0061086523,0.002443461,11197676115,49.953125
11197678365,-1.1246266,-9.973285,0.2632105,11197678365,0.0012217305,-0.008552114,0.0036651916,11197678365,49.953125
11197680604,-1.1246266,-9.963714,0.21535404,11197680604,0.002443461,-0.007330383,0.0036651916,11197680604,49.976562
11197682843,-1.1389836,-9.958928,0.2105684,11197682843,0,-0.0036651916,0.002443461,11197682843,49.976562
11197685082,-1.1102697,-9.949356,0.21535404,11197685082,0.0036651916,-0.004886922,0.0036651916,11197685082,49.976562
11197687678,-1.1389836,-9.963714,0.21535404,11197687678,0.0036651916,-0.008552114,0.002443461,11197687678,49.976562
11197689567,-1.1437693,-9.963714,0.24885355,11197689567,0.002443461,-0.0061086523,0.0036651916,11197689567,49.976562
11197691806,-1.1294123,-9.939785,0.23449662,11197691806,0.002443461,-0.0061086523,0.002443461,11197691806,49.976562
11197694045,-1.1246266,-9.949356,0.21535404,11197694045,0.0012217305,-0.0061086523,0.002443461,11197694045,49.976562
11197696284,-1.1389836,-9.963714,0.22971097,11197696284,0.0012217305,-0.0036651916,0.0012217305,11197696284,49.976562
11197698544,-1.1294123,-9.954143,0.23449662,11197698544,0.002443461,-0.004886922,0.002443461,11197698544,49.91797
11197700783,-1.119841,-9.949356,0.23449662,11197700783,0,-0.008552114,0.002443461,11197700783,49.91797
11197703022,-1.1389836,-9.944571,0.24885355,11197703022,0.0012217305,-0.004886922,0.002443461,11197703022,49.91797
11197705261,-1.1294123,-9.963714,0.22013968,11197705261,0.004886922,-0.004886922,0.002443461,11197705261,49.91797
11197707691,-1.1485549,-9.963714,0.22971097,11197707691,0.0036651916,-0.008552114,0.0036651916,11197707691,49.91797
11197709744,-1.1294123,-9.954143,0.21535404,11197709744,0.0036651916,-0.004886922,0.002443461,11197709744,49.91797
11197711983,-1.1437693,-9.963714,0.22971097,11197711983,0.0036651916,-0.0036651916,0.0036651916,11197711983,49.91797
11197714221,-1.1389836,-9.963714,0.21535404,11197714221,0.0036651916,-0.004886922,0.002443461,11197714221,49.91797
11197716460,-1.134198,-9.968499,0.2105684,11197716460,0.0012217305,-0.0061086523,0.0036651916,11197716460,49.953125
11197718696,-1.119841,-9.954143,0.2440679,11197718696,0.002443461,-0.004886922,0.002443461,11197718696,49.953125
11197720935,-1.134198,-9.954143,0.2440679,11197720935,0.002443461,-0.0036651916,0.004886922,11197720935,49.953125
11197723174,-1.1102697,-9.968499,0.22971097,11197723174,0.0036651916,-0.007330383,0.0036651916,11197723174,49.953125
11197725412,-1.1150553,-9.963714,0.22492532,11197725412,-0.0012217305,-0.0061086523,0.002443461,11197725412,49.953125
11197727668,-1.119841,-9.968499,0.21535404,11197727668,0.002443461,-0.0061086523,0.0036651916,11197727668,49.953125
11197729907,-1.1246266,-9.958928,0.20578274,11197729907,0,-0.008552114,0.0036651916,11197729907,49.953125
11197732145,-1.1294123,-9.968499,0.2009971,11197732145,0.0012217305,-0.008552114,0.0036651916,11197732145,49.953125
11197734384,-1.1437693,-9.934999,0.19621146,11197734384,0.004886922,-0.0061086523,0.0061086523,11197734384,49.984375
11197736623,-1.134198,-9.954143,0.20578274,11197736623,0.002443461,-0.007330383,0.0036651916,11197736623,49.984375
11197738861,-1.1581261,-9.944571,0.22013968,11197738861,0.0012217305,-0.004886922,0.002443461,11197738861,49.984375
11197741100,-1.1437693,-9.944571,0.21535404,11197741100,0.002443461,-0.0036651916,0.0036651916,11197741100,49.984375
11197743339,-1.1437693,-9.958928,0.21535404,11197743339,0.0036651916,-0.0061086523,0.0036651916,11197743339,49.984375
11197745578,-1.1389836,-9.949356,0.21535404,11197745578,0,-0.0036651916,0.0012217305,11197745578,49.984375
11197747834,-1.119841,-9.954143,0.21535404,11197747834,0.0012217305,-0.004886922,0.0036651916,11197747834,49.984375
11197750073,-1.1629118,-9.963714,0.22013968,11197750073,0.0036651916,-0.008552114,0.002443461,11197750073,49.984375
11197752312,-1.1437693,-9.939785,0.22971097,11197752312,0,-0.0061086523,0.004886922,11197752312,49.984375
11197754550,-1.1437693,-9.963714,0.21535404,11197754550,0.0012217305,-0.002443461,0.0036651916,11197754550,49.984375
11197756789,-1.1533405,-9.949356,0.2009971,11197756789,0,-0.004886922,0.0036651916,11197756789,49.984375
11197759047,-1.1485549,-9.963714,0.19621146,11197759047,0,-0.010995574,0.0012217305,11197759047,49.984375
11197761286,-1.134198,-9.958928,0.21535404,11197761286,0,-0.0061086523,0.0036651916,11197761286,49.984375
11197763524,-1.1389836,-9.97807,0.2440679,11197763524,0.0012217305,-0.004886922,0.004886922,11197763524,49.984375
11197765763,-1.134198,-9.954143,0.20578274,11197765763,0.0036651916,-0.0036651916,0.0036651916,11197765763,49.984375
11197767994,-1.1437693,-9.963714,0.21535404,11197767994,0.0036651916,-0.004886922,0.0036651916,11197767994,49.984375
11197770233,-1.1389836,-9.954143,0.21535404,11197770233,0.0036651916,-0.0061086523,0.002443461,11197770233,49.976562
11197772472,-1.1437693,-9.949356,0.22492532,11197772472,0.002443461,-0.007330383,0.0036651916,11197772472,49.976562
11197774711,-1.1389836,-9.944571,0.23928227,11197774711,0.002443461,-0.0036651916,0.0036651916,11197774711,49.976562
11197776950,-1.1389836,-9.944571,0.22492532,11197776950,0,-0.007330383,0.0036651916,11197776950,49.976562
11197779210,-1.1437693,-9.949356,0.22492532,11197779210,0.002443461,-0.009773844,0.004886922,11197779210,49.976562
11197781449,-1.1437693,-9.958928,0.22971097,11197781449,0.0012217305,-0.0061086523,0.004886922,11197781449,49.976562
11197783688,-1.1294123,-9.949356,0.20578274,11197783688,0.0036651916,-0.004886922,0.002443461,11197783688,49.976562
11197785926,-1.1294123,-9.963714,0.22971097,11197785926,0.004886922,-0.0061086523,0.0036651916,11197785926,49.976562
11197788163,-1.1246266,-9.958928,0.23449662,11197788163,0.0012217305,-0.004886922,0.0036651916,11197788163,49.960938
11197790401,-1.1294123,-9.944571,0.22971097,11197790401,0,-0.007330383,0.002443461,11197790401,49.960938
11197792640,-1.134198,-9.944571,0.23928227,11197792640,0.0036651916,-0.008552114,0.002443461,11197792640,49.960938
11197794879,-1.1294123,-9.949356,0.23449662,11197794879,0.0036651916,-0.004886922,0.004886922,11197794879,49.960938
11197797118,-1.1294123,-9.963714,0.22492532,11197797118,0.002443461,-0.0036651916,0.0036651916,11197797118,49.960938
11197799372,-1.1294123,-9.949356,0.22013968,11197799372,0.004886922,-0.0061086523,0.0012217305,11197799372,49.960938
11197801611,-1.134198,-9.958928,0.21535404,11197801611,0.0036651916,-0.008552114,0.002443461,11197801611,49.960938
11197803850,-1.1246266,-9.963714,0.21535404,11197803850,0.0036651916,-0.0061086523,0.0036651916,11197803850,49.960938
11197806089,-1.1389836,-9.958928,0.21535404,11197806089,0.004886922,-0.008552114,0.0012217305,11197806089,49.96875
11197808342,-1.1389836,-9.963714,0.2105684,11197808342,0.0012217305,-0.007330383,0.0036651916,11197808342,49.96875
11197810581,-1.1294123,-9.954143,0.22013968,11197810581,0.004886922,-0.007330383,0.002443461,11197810581,49.96875
11197812820,-1.1389836,-9.963714,0.22492532,11197812820,0.002443461,-0.007330383,0.004886922,11197812820,49.96875
11197815059,-1.134198,-9.954143,0.21535404,11197815059,0.002443461,-0.0061086523,0.0061086523,11197815059,49.96875
11197817647,-1.1485549,-9.958928,0.22971097,11197817647,0.0012217305,-0.004886922,0.004886922,11197817647,49.96875
11197819536,-1.1389836,-9.968499,0.2105684,11197819536,0.0012217305,-0.0061086523,0.0036651916,11197819536,49.96875
11197821775,-1.1437693,-9.958928,0.2009971,11197821775,0,-0.0036651916,0.002443461,11197821775,49.96875
11197824014,-1.1294123,-9.963714,0.22492532,11197824014,0.002443461,-0.004886922,0.0012217305,11197824014,49.992188
11197826253,-1.1389836,-9.949356,0.2009971,11197826253,0.0012217305,-0.004886922,0.0012217305,11197826253,49.992188
11197828489,-1.1389836,-9.958928,0.19621146,11197828489,0.0012217305,-0.007330383,0.0036651916,11197828489,49.992188
11197830728,-1.134198,-9.958928,0.22971097,11197830728,0.0012217305,-0.0061086523,0.0012217305,11197830728,49.992188
11197832967,-1.1389836,-9.973285,0.20578274,11197832967,0.002443461,-0.0061086523,0.002443461,11197832967,49.992188
11197835206,-1.134198,-9.944571,0.20578274,11197835206,-0.0012217305,-0.0061086523,0.002443461,11197835206,49.992188
11197837647,-1.1294123,-9.958928,0.21535404,11197837647,0,-0.0061086523,0.0036651916,11197837647,49.992188
11197839700,-1.1437693,-9.963714,0.21535404,11197839700,-0.0012217305,-0.008552114,0.0036651916,11197839700,49.992188
11197841939,-1.134198,-9.934999,0.23928227,11197841939,0,-0.0061086523,0.002443461,11197841939,49.976562
11197844177,-1.1294123,-9.963714,0.22971097,11197844177,0.0012217305,-0.004886922,0.0036651916,11197844177,49.976562
11197846416,-1.1294123,-9.954143,0.2009971,11197846416,0,-0.007330383,0.0036651916,11197846416,49.976562
11197848673,-1.1294123,-9.968499,0.21535404,11197848673,0.0012217305,-0.0061086523,0.0061086523,11197848673,49.976562
11197850912,-1.1437693,-9.968499,0.20578274,11197850912,0.0036651916,-0.0061086523,0.0036651916,11197850912,49.976562
11197853150,-1.134198,-9.949356,0.22492532,11197853150,0.0012217305,-0.0061086523,0.0036651916,11197853150,49.976562
11197855389,-1.1389836,-9.949356,0.2105684,11197855389,0.002443461,-0.004886922,0.002443461,11197855389,49.976562
11197857644,-1.1437693,-9.968499,0.20578274,11197857644,0.0036651916,-0.007330383,0.0061086523,11197857644,49.976562
11197859860,-1.1294123,-9.958928,0.22492532,11197859860,0.002443461,-0.0061086523,0.0036651916,11197859860,49.960938
11197862099,-1.1150553,-9.973285,0.22492532,11197862099,0.002443461,-0.0036651916,0.0036651916,11197862099,49.960938
11197864338,-1.119841,-9.973285,0.22971097,11197864338,0.002443461,-0.0061086523,0.0012217305,11197864338,49.960938
11197866576,-1.1150553,-9.963714,0.22013968,11197866576,0.002443461,-0.004886922,0.002443461,11197866576,49.960938
11197868839,-1.1294123,-9.963714,0.21535404,11197868839,0,-0.008552114,0.0012217305,11197868839,49.960938
11197871078,-1.1389836,-9.954143,0.18664017,11197871078,0.0012217305,-0.007330383,0.002443461,11197871078,49.960938
11197873317,-1.1389836,-9.954143,0.21535404,11197873317,0.0012217305,-0.004886922,0.002443461,11197873317,49.960938
11197875555,-1.1533405,-9.963714,0.20578274,11197875555,0.004886922,-0.004886922,0.0036651916,11197875555,49.960938
11197877807,-1.1389836,-9.949356,0.20578274,11197877807,0.002443461,-0.0061086523,0.004886922,11197877807,49.96875
11197880046,-1.1294123,-9.949356,0.22492532,11197880046,0.002443461,-0.002443461,0.004886922,11197880046,49.96875
11197882284,-1.134198,-9.954143,0.2105684,11197882284,0,-0.0036651916,0.002443461,11197882284,49.96875
11197884523,-1.1389836,-9.958928,0.19621146,11197884523,0.0012217305,-0.007330383,0.004886922,11197884523,49.96875
11197886762,-1.1629118,-9.954143,0.20578274,11197886762,0,-0.0061086523,0.002443461,11197886762,49.96875
11197889001,-1.1485549,-9.958928,0.19142582,11197889001,0,-0.004886922,0.002443461,11197889001,49.96875
11197891240,-1.1294123,-9.963714,0.20578274,11197891240,0,-0.0061086523,0.0036651916,11197891240,49.96875
11197893479,-1.1389836,-9.958928,0.2009971,11197893479,0.002443461,-0.0061086523,0.002443461,11197893479,49.96875
11197895718,-1.119841,-9.954143,0.19621146,11197895718,0.0012217305,-0.004886922,0.002443461,11197895718,49.953125
11197897961,-1.134198,-9.954143,0.2009971,11197897961,0.002443461,-0.008552114,0.002443461,11197897961,49.953125
11197900200,-1.1437693,-9.944571,0.22492532,11197900200,0.004886922,-0.008552114,0.0012217305,11197900200,49.953125
11197902439,-1.1437693,-9.973285,0.20578274,11197902439,0.0012217305,-0.0061086523,0.002443461,11197902439,49.953125
11197904678,-1.1389836,-9.934999,0.21535404,11197904678,0,-0.004886922,0.0012217305,11197904678,49.953125
11197906917,-1.1389836,-9.944571,0.2009971,11197906917,0.0012217305,-0.0061086523,0.0036651916,11197906917,49.953125
11197909165,-1.1389836,-9.963714,0.19621146,11197909165,0.002443461,-0.008552114,0.002443461,11197909165,49.953125
11197911404,-1.134198,-9.958928,0.20578274,11197911404,0.0036651916,-0.008552114,0.002443461,11197911404,49.953125
11197913642,-1.1437693,-9.934999,0.21535404,11197913642,0.004886922,-0.007330383,0.0036651916,11197913642,49.976562
11197915881,-1.134198,-9.968499,0.20578274,11197915881,-0.0012217305,-0.0036651916,0.0036651916,11197915881,49.976562
11197918121,-1.1389836,-9.968499,0.22013968,11197918121,0.002443461,-0.0061086523,0.0036651916,11197918121,49.976562
11197920359,-1.1485549,-9.963714,0.20578274,11197920359,0.002443461,-0.004886922,0.0036651916,11197920359,49.976562
11197922598,-1.1676974,-9.958928,0.2105684,11197922598,0.002443461,-0.0036651916,0.002443461,11197922598,49.976562
11197924837,-1.134198,-9.958928,0.21535404,11197924837,0.002443461,-0.008552114,0.002443461,11197924837,49.976562
11197927076,-1.134198,-9.939785,0.2105684,11197927076,0.002443461,-0.0061086523,0.0036651916,11197927076,49.976562
11197929335,-1.134198,-9.954143,0.2105684,11197929335,0.002443461,-0.004886922,0.002443461,11197929335,49.976562
11197931574,-1.1437693,-9.949356,0.20578274,11197931574,0.0012217305,-0.008552114,0.002443461,11197931574,49.984375
11197933813,-1.1533405,-9.954143,0.2009971,11197933813,0.0012217305,-0.0061086523,0.004886922,11197933813,49.984375
11197936052,-1.1485549,-9.939785,0.2009971,11197936052,0.002443461,-0.002443461,0.0036651916,11197936052,49.984375
11197938288,-1.134198,-9.939785,0.21535404,11197938288,0.0012217305,-0.0061086523,0.002443461,11197938288,49.984375
11197940527,-1.134198,-9.949356,0.23928227,11197940527,0.0012217305,-0.002443461,0.002443461,11197940527,49.984375
11197942765,-1.1533405,-9.944571,0.20578274,11197942765,0.0012217305,-0.0061086523,0.0036651916,11197942765,49.984375
11197945004,-1.119841,-9.954143,0.20578274,11197945004,0.0036651916,-0.0036651916,0.002443461,11197945004,49.984375
11197947644,-1.1437693,-9.949356,0.21535404,11197947644,0.002443461,-0.004886922,0.0012217305,11197947644,49.984375
11197949510,-1.134198,-9.949356,0.21535404,11197949510,0.002443461,-0.008552114,0.0036651916,11197949510,49.933594
11197951749,-1.1389836,-9.954143,0.21535404,11197951749,0,-0.002443461,0.0036651916,11197951749,49.933594
11197953988,-1.134198,-9.949356,0.22013968,11197953988,0.002443461,-0.0012217305,0.0036651916,11197953988,49.933594
11197956227,-1.134198,-9.954143,0.21535404,11197956227,0.004886922,-0.004886922,0.002443461,11197956227,49.933594
11197958463,-1.1389836,-9.963714,0.20578274,11197958463,0.0036651916,-0.0061086523,0.002443461,11197958463,49.933594
11197960702,-1.1485549,-9.949356,0.20578274,11197960702,0.002443461,-0.004886922,0.002443461,11197960702,49.933594
11197962940,-1.1389836,-9.963714,0.2105684,11197962940,0.002443461,-0.0036651916,0.002443461,11197962940,49.933594
11197965179,-1.1294123,-9.944571,0.2009971,11197965179,0.0036651916,-0.0061086523,0.002443461,11197965179,49.933594
11197967642,-1.1294123,-9.949356,0.19621146,11197967642,0,-0.002443461,0.0036651916,11197967642,50
11197969671,-1.134198,-9.963714,0.19621146,11197969671,-0.0012217305,-0.002443461,0.0036651916,11197969671,50
11197971910,-1.1294123,-9.968499,0.2105684,11197971910,0.002443461,-0.007330383,0.0012217305,11197971910,50
11197974149,-1.1150553,-9.973285,0.20578274,11197974149,0.002443461,-0.007330383,0.0012217305,11197974149,50
11197976388,-1.134198,-9.939785,0.22492532,11197976388,0.0012217305,-0.002443461,0.0036651916,11197976388,50
11197978628,-1.134198,-9.949356,0.2105684,11197978628,0.0012217305,-0.0036651916,0.0036651916,11197978628,50
11197980867,-1.1294123,-9.958928,0.2105684,11197980867,0.0036651916,-0.0061086523,0.002443461,11197980867,50
11197983106,-1.1437693,-9.958928,0.21535404,11197983106,0.002443461,-0.0036651916,0.002443461,11197983106,50
11197985344,-1.1102697,-9.968499,0.2105684,11197985344,0.002443461,-0.0036651916,0.0036651916,11197985344,49.953125
11197987682,-1.1246266,-9.963714,0.22971097,11197987682,0.002443461,-0.0036651916,0.004886922,11197987682,49.953125
11197989828,-1.1437693,-9.963714,0.21535404,11197989828,0.0036651916,-0.009773844,0.0036651916,11197989828,49.953125
11197992067,-1.119841,-9.944571,0.22013968,11197992067,0.0036651916,-0.0061086523,0.004886922,11197992067,49.953125
11197994306,-1.1246266,-9.954143,0.2105684,11197994306,0.0036651916,-0.0036651916,0.0036651916,11197994306,49.953125
11197996544,-1.1389836,-9.944571,0.21535404,11197996544,0.0012217305,-0.007330383,0.0036651916,11197996544,49.953125
11197998801,-1.1389836,-9.944571,0.23449662,11197998801,0.002443461,-0.0061086523,0.002443461,11197998801,49.953125
11198001040,-1.1389836,-9.949356,0.22013968,11198001040,0.0012217305,-0.004886922,0.0036651916,11198001040,49.953125
11198003279,-1.1389836,-9.954143,0.22013968,11198003279,-0.0012217305,-0.0061086523,0.002443461,11198003279,49.984375
11198005517,-1.1533405,-9.963714,0.22013968,11198005517,0.002443461,-0.0061086523,0.002443461,11198005517,49.984375
11198007759,-1.1389836,-9.958928,0.22492532,11198007759,0.002443461,-0.004886922,0.002443461,11198007759,49.984375
11198009998,-1.134198,-9.954143,0.22492532,11198009998,0.004886922,-0.0061086523,0.0036651916,11198009998,49.984375
11198012237,-1.1437693,-9.949356,0.22492532,11198012237,0.002443461,-0.0036651916,0.004886922,11198012237,49.984375
11198014476,-1.1581261,-9.949356,0.2440679,11198014476,0,-0.004886922,0.0036651916,11198014476,49.984375
11198016715,-1.134198,-9.939785,0.23449662,11198016715,0.004886922,-0.0061086523,0.0036651916,11198016715,49.984375
11198018966,-1.1389836,-9.949356,0.22013968,11198018966,0.0012217305,-0.0036651916,0.0012217305,11198018966,49.984375
