accelerationTimestamp,accelerationX,accelerationY,accelerationZ,angularSpeedTimestamp,angularSpeedX,angularSpeedY,angularSpeedZ,temperatureTimestamp,temperature
11195664455,-0.95712906,-9.869197,0.3182454,11195664455,0.007941248,-0.017104227,0.0018325958,11195664455,49.71875
11195673297,-0.9487542,-9.865608,0.33260235,11195673297,0.0067195175,-0.017104227,0.00061086525,11195673297,49.71875
11195682139,-0.9607183,-9.8632145,0.32063824,11195682139,0.007330383,-0.016493361,0.00061086525,11195682139,49.64453
11195690997,-0.9559326,-9.8632145,0.33260235,11195690997,0.007330383,-0.017104227,0.00061086525,11195690997,49.64453
11195699837,-0.9607183,-9.8632145,0.3361916,11195699837,0.0067195175,-0.015882496,0,11195699837,49.703125
11195708687,-0.95473623,-9.860822,0.33379877,11195708687,0.007941248,-0.017104227,0.00061086525,11195708687,49.703125
11195717531,-0.9619147,-9.865608,0.32422748,11195717531,0.008552114,-0.017715093,0.0012217305,11195717531,49.710938
11195726392,-0.9595219,-9.857233,0.3397808,11195726392,0.007330383,-0.017104227,0.00061086525,11195726392,49.710938
11195735232,-0.96909314,-9.868001,0.33140594,11195735232,0.0067195175,-0.015271631,0.0012217305,11195735232,49.710938
11195744095,-0.9738788,-9.857233,0.33140594,11195744095,0.007330383,-0.015882496,0,11195744095,49.710938
11195752923,-0.95353985,-9.868001,0.33140594,11195752923,0.007330383,-0.015271631,0.00061086525,11195752923,49.695312
11195761791,-0.94277215,-9.856036,0.3278167,11195761791,0.0067195175,-0.017104227,0,11195761791,49.695312
11195770632,-0.9451649,-9.864411,0.34217364,11195770632,0.007330383,-0.015882496,0.00061086525,11195770632,49.71875
11195779474,-0.9607183,-9.862019,0.3361916,11195779474,0.007330383,-0.017104227,0.00061086525,11195779474,49.71875
11195788336,-0.97866446,-9.859626,0.33738798,11195788336,0.0067195175,-0.018325957,0.00061086525,11195788336,49.6875
11195797180,-0.9906286,-9.8727865,0.33499518,11195797180,0.0067195175,-0.016493361,0.00061086525,11195797180,49.6875
11195806016,-0.97507524,-9.859626,0.32662028,11195806016,0.0067195175,-0.017104227,0,11195806016,49.703125
11195814884,-0.95473623,-9.866804,0.31465617,11195814884,0.007941248,-0.018325957,0.0012217305,11195814884,49.703125
11195823712,-0.95353985,-9.859626,0.32063824,11195823712,0.007330383,-0.017715093,0.0012217305,11195823712,49.71875
11195832562,-0.9523434,-9.866804,0.32183465,11195832562,0.0067195175,-0.018325957,0.0012217305,11195832562,49.71875
11195841413,-0.96430755,-9.856036,0.32542387,11195841413,0.007330383,-0.017715093,0.00061086525,11195841413,49.695312
11195850278,-0.9702896,-9.868001,0.33379877,11195850278,0.0067195175,-0.017715093,0.00061086525,11195850278,49.695312
11195859129,-0.9619147,-9.866804,0.3397808,11195859129,0.007330383,-0.017104227,0.0012217305,11195859129,49.726562
11195868038,-0.96550393,-9.866804,0.3182454,11195868038,0.0061086523,-0.018325957,0.0012217305,11195868038,49.726562
11195876813,-0.9523434,-9.865608,0.31465617,11195876813,0.0061086523,-0.017104227,0.0018325958,11195876813,49.726562
11195885663,-0.95353985,-9.873982,0.30388847,11195885663,0.0067195175,-0.017715093,0.00061086525,11195885663,49.726562
11195894502,-0.9559326,-9.873982,0.30388847,11195894502,0.008552114,-0.017715093,0.0012217305,11195894502,49.726562
11195903367,-0.94755775,-9.873982,0.32063824,11195903367,0.007941248,-0.016493361,0.0012217305,11195903367,49.726562
11195912206,-0.94636136,-9.865608,0.31345975,11195912206,0.007941248,-0.017104227,0.00061086525,11195912206,49.695312
11195921057,-0.9619147,-9.860822,0.33140594,11195921057,0.007330383,-0.017104227,0,11195921057,49.695312
11195929904,-0.9762716,-9.865608,0.32303107,11195929904,0.0067195175,-0.016493361,0.0012217305,11195929904,49.703125
11195938748,-0.96430755,-9.853643,0.32422748,11195938748,0.0067195175,-0.017715093,0.0018325958,11195938748,49.703125
11195947592,-0.94636136,-9.860822,0.31944183,11195947592,0.007330383,-0.017715093,0.0012217305,11195947592,49.67578
11195956456,-0.94755775,-9.865608,0.32063824,11195956456,0.0067195175,-0.016493361,0.00061086525,11195956456,49.67578
11195965301,-0.94755775,-9.862019,0.30508488,11195965301,0.0061086523,-0.015882496,0,11195965301,49.726562
11195974160,-0.96550393,-9.858429,0.2955136,11195974160,0.007941248,-0.015882496,0.0012217305,11195974160,49.726562
11195983000,-0.9762716,-9.862019,0.3182454,11195983000,0.007941248,-0.016493361,0.00061086525,11195983000,49.710938
11195991839,-0.9702896,-9.862019,0.32063824,11195991839,0.0067195175,-0.017715093,0.00061086525,11195991839,49.710938
11196000686,-0.95712906,-9.868001,0.33499518,11196000686,0.007941248,-0.017104227,0.00061086525,11196000686,49.710938
11196009546,-0.94755775,-9.864411,0.33020952,11196009546,0.0067195175,-0.017715093,0.0012217305,11196009546,49.710938
11196018407,-0.9559326,-9.870394,0.31585258,11196018407,0.0067195175,-0.018325957,0.0012217305,11196018407,49.6875
11196027251,-0.9607183,-9.868001,0.32542387,11196027251,0.0067195175,-0.017715093,0.0012217305,11196027251,49.6875
11196036081,-0.9607183,-9.857233,0.30987054,11196036081,0.008552114,-0.017715093,0.00061086525,11196036081,49.71875
11196044947,-0.96550393,-9.851251,0.3182454,11196044947,0.007330383,-0.016493361,0.00061086525,11196044947,49.71875
11196053790,-0.9667004,-9.87159,0.30269206,11196053790,0.007941248,-0.017715093,0.00061086525,11196053790,49.703125
11196062646,-0.96430755,-9.870394,0.317049,11196062646,0.007330383,-0.015882496,0.00061086525,11196062646,49.703125
11196071490,-0.9667004,-9.8632145,0.31106696,11196071490,0.007330383,-0.015882496,0.00061086525,11196071490,49.703125
11196080337,-0.9595219,-9.869197,0.3182454,11196080337,0.007330383,-0.015882496,0.00061086525,11196080337,49.703125
11196089196,-0.9487542,-9.859626,0.32183465,11196089196,0.008552114,-0.017104227,0.0012217305,11196089196,49.710938
11196098155,-0.9595219,-9.869197,0.3182454,11196098155,0.007941248,-0.017104227,0.0018325958,11196098155,49.710938
11196106884,-0.96909314,-9.8632145,0.30987054,11196106884,0.0061086523,-0.017104227,0.0012217305,11196106884,49.726562
11196115739,-0.9762716,-9.879965,0.32183465,11196115739,0.007941248,-0.016493361,0.0012217305,11196115739,49.726562
11196124572,-0.971486,-9.864411,0.30508488,11196124572,0.007330383,-0.015882496,0.0018325958,11196124572,49.71875
11196133421,-0.9595219,-9.860822,0.31106696,11196133421,0.007330383,-0.014049901,0.0018325958,11196133421,49.71875
11196142275,-0.951147,-9.866804,0.31585258,11196142275,0.008552114,-0.014660766,0.0012217305,11196142275,49.652344
11196151130,-0.95353985,-9.857233,0.32183465,11196151130,0.007941248,-0.014660766,0.0018325958,11196151130,49.652344
11196159974,-0.96430755,-9.866804,0.32303107,11196159974,0.0067195175,-0.016493361,0.0012217305,11196159974,49.710938
11196168829,-0.96430755,-9.866804,0.33499518,11196168829,0.0067195175,-0.016493361,0.0018325958,11196168829,49.710938
11196177672,-0.9595219,-9.862019,0.32063824,11196177672,0.0067195175,-0.016493361,0.0012217305,11196177672,49.710938
11196186522,-0.96550393,-9.859626,0.33260235,11196186522,0.0061086523,-0.015882496,0.00061086525,11196186522,49.710938
11196195360,-0.9607183,-9.868001,0.32422748,11196195360,0.007941248,-0.015271631,0.0012217305,11196195360,49.726562
11196204205,-0.951147,-9.860822,0.32183465,11196204205,0.007330383,-0.015882496,0.0012217305,11196204205,49.726562
11196213063,-0.95353985,-9.8632145,0.32422748,11196213063,0.008552114,-0.016493361,0.0012217305,11196213063,49.734375
11196221925,-0.9607183,-9.862019,0.33020952,11196221925,0.007330383,-0.015271631,0.002443461,11196221925,49.734375
11196230768,-0.96430755,-9.862019,0.34217364,11196230768,0.007330383,-0.015271631,0.0012217305,11196230768,49.742188
11196239606,-0.96789676,-9.870394,0.3397808,11196239606,0.007330383,-0.014049901,0.0018325958,11196239606,49.742188
11196248466,-0.9607183,-9.866804,0.33020952,11196248466,0.0067195175,-0.015882496,0.0018325958,11196248466,49.734375
11196257310,-0.9619147,-9.869197,0.33738798,11196257310,0.007941248,-0.016493361,0.0012217305,11196257310,49.734375
11196266161,-0.95712906,-9.869197,0.32063824,11196266161,0.0061086523,-0.017104227,0.0012217305,11196266161,49.710938
11196275012,-0.95473623,-9.862019,0.3278167,11196275012,0.007941248,-0.017715093,0.0012217305,11196275012,49.710938
11196283858,-0.9559326,-9.853643,0.32422748,11196283858,0.007330383,-0.017715093,0.0012217305,11196283858,49.6875
11196292699,-0.96430755,-9.868001,0.32183465,11196292699,0.007330383,-0.017715093,0.0012217305,11196292699,49.6875
11196301544,-0.96430755,-9.869197,0.33020952,11196301544,0.0067195175,-0.017715093,0.00061086525,11196301544,49.695312
11196310395,-0.9595219,-9.865608,0.32063824,11196310395,0.009162978,-0.017715093,0.00061086525,11196310395,49.695312
11196319258,-0.95832545,-9.866804,0.33499518,11196319258,0.007941248,-0.017104227,0.00061086525,11196319258,49.734375
11196328099,-0.95473623,-9.870394,0.32662028,11196328099,0.007330383,-0.017715093,0.0012217305,11196328099,49.734375
11196336942,-0.95473623,-9.8632145,0.3361916,11196336942,0.007941248,-0.017104227,0.0012217305,11196336942,49.726562
11196345790,-0.9523434,-9.862019,0.34217364,11196345790,0.007330383,-0.016493361,0,11196345790,49.726562
11196354648,-0.96789676,-9.868001,0.32303107,11196354648,0.007330383,-0.017104227,0.00061086525,11196354648,49.67578
11196363493,-0.9702896,-9.8632145,0.32063824,11196363493,0.007941248,-0.017715093,0.0012217305,11196363493,49.67578
11196372330,-0.96789676,-9.87159,0.32063824,11196372330,0.007941248,-0.017104227,0.00061086525,11196372330,49.710938
11196381179,-0.96550393,-9.87159,0.32662028,11196381179,0.0061086523,-0.016493361,0.0012217305,11196381179,49.710938
11196390046,-0.95832545,-9.865608,0.34217364,11196390046,0.007941248,-0.017715093,0.00061086525,11196390046,49.6875
11196398894,-0.95832545,-9.868001,0.3290131,11196398894,0.0067195175,-0.017715093,0.0012217305,11196398894,49.6875
11196407738,-0.9619147,-9.868001,0.3397808,11196407738,0.0067195175,-0.017715093,0.0012217305,11196407738,49.726562
11196416586,-0.9607183,-9.875179,0.32063824,11196416586,0.0061086523,-0.017715093,0.0012217305,11196416586,49.726562
11196425433,-0.95712906,-9.868001,0.31944183,11196425433,0.007941248,-0.018325957,0.0012217305,11196425433,49.710938
11196434282,-0.95832545,-9.866804,0.31585258,11196434282,0.007330383,-0.017104227,0.0012217305,11196434282,49.710938
11196443122,-0.9667004,-9.868001,0.31106696,11196443122,0.007330383,-0.017104227,0.0012217305,11196443122,49.710938
11196451972,-0.95832545,-9.860822,0.30508488,11196451972,0.0067195175,-0.015882496,0.0018325958,11196451972,49.710938
11196460832,-0.9595219,-9.860822,0.30508488,11196460832,0.008552114,-0.017104227,0.0012217305,11196460832,49.71875
11196469675,-0.94396853,-9.859626,0.31944183,11196469675,0.007941248,-0.016493361,0.00061086525,11196469675,49.71875
11196478515,-0.9499506,-9.860822,0.32422748,11196478515,0.007941248,-0.016493361,0.0018325958,11196478515,49.67578
11196487359,-0.96550393,-9.868001,0.30508488,11196487359,0.004886922,-0.017104227,0.0012217305,11196487359,49.67578
11196496225,-0.9619147,-9.860822,0.30149564,11196496225,0.007330383,-0.017715093,0.0012217305,11196496225,49.703125
11196505063,-0.95712906,-9.8632145,0.30149564,11196505063,0.0067195175,-0.018325957,0.0012217305,11196505063,49.703125
11196513929,-0.94755775,-9.87159,0.2943172,11196513929,0.007330383,-0.017104227,0.0018325958,11196513929,49.71875
11196522758,-0.95473623,-9.8727865,0.30149564,11196522758,0.007330383,-0.015271631,0.0012217305,11196522758,49.71875
11196531623,-0.9559326,-9.868001,0.31345975,11196531623,0.007330383,-0.015271631,0.00061086525,11196531623,49.710938
11196540455,-0.9619147,-9.869197,0.32422748,11196540455,0.007941248,-0.016493361,0.00061086525,11196540455,49.710938
11196549326,-0.9631111,-9.864411,0.317049,11196549326,0.007330383,-0.015271631,0,11196549326,49.695312
11196558171,-0.95473623,-9.866804,0.32303107,11196558171,0.005497787,-0.015271631,0.0012217305,11196558171,49.695312
11196567014,-0.9523434,-9.864411,0.3290131,11196567014,0.0067195175,-0.015271631,0.0018325958,11196567014,49.75
11196575858,-0.95473623,-9.864411,0.3074777,11196575858,0.0067195175,-0.015271631,0.00061086525,11196575858,49.75
11196584699,-0.95473623,-9.864411,0.30388847,11196584699,0.0061086523,-0.015271631,0.00061086525,11196584699,49.710938
11196593562,-0.9499506,-9.868001,0.31226337,11196593562,0.007330383,-0.015882496,0.00061086525,11196593562,49.710938
11196602403,-0.9523434,-9.866804,0.31585258,11196602403,0.0067195175,-0.015882496,0.0012217305,11196602403,49.660156
11196611256,-0.95712906,-9.866804,0.3385844,11196611256,0.007330383,-0.015882496,0.0012217305,11196611256,49.660156
11196620106,-0.9559326,-9.8632145,0.34456646,11196620106,0.007330383,-0.015882496,0.00061086525,11196620106,49.703125
11196628964,-0.96909314,-9.8632145,0.3385844,11196628964,0.009162978,-0.016493361,0.00061086525,11196628964,49.703125
11196637808,-0.9738788,-9.860822,0.33379877,11196637808,0.007330383,-0.017104227,0.00061086525,11196637808,49.703125
11196646657,-0.95712906,-9.866804,0.32542387,11196646657,0.007330383,-0.017715093,0.0012217305,11196646657,49.703125
11196655499,-0.9451649,-9.869197,0.3385844,11196655499,0.008552114,-0.017104227,0.00061086525,11196655499,49.66797
11196664345,-0.951147,-9.868001,0.30987054,11196664345,0.007330383,-0.015882496,0.00061086525,11196664345,49.66797
11196673191,-0.96789676,-9.862019,0.32303107,11196673191,0.007941248,-0.017104227,0.0012217305,11196673191,49.71875
11196682036,-0.96909314,-9.859626,0.3385844,11196682036,0.0061086523,-0.015882496,0.0018325958,11196682036,49.71875
11196690889,-0.9846465,-9.865608,0.3290131,11196690889,0.007941248,-0.016493361,0.0018325958,11196690889,49.6875
11196699735,-0.9523434,-9.868001,0.3397808,11196699735,0.0067195175,-0.016493361,0.00061086525,11196699735,49.6875
11196708603,-0.9403793,-9.868001,0.33738798,11196708603,0.007941248,-0.017715093,0.00061086525,11196708603,49.695312
11196717447,-0.9487542,-9.866804,0.33260235,11196717447,0.007330383,-0.017104227,0.0012217305,11196717447,49.695312
11196726285,-0.9607183,-9.864411,0.33260235,11196726285,0.007330383,-0.017104227,0.0018325958,11196726285,49.710938
11196735137,-0.9667004,-9.873982,0.32422748,11196735137,0.007941248,-0.017104227,0.0012217305,11196735137,49.710938
11196743988,-0.96550393,-9.868001,0.3290131,11196743988,0.007941248,-0.017715093,0.0012217305,11196743988,49.71875
11196752830,-0.96550393,-9.8632145,0.33379877,11196752830,0.007330383,-0.017104227,0.0012217305,11196752830,49.71875
11196761680,-0.9726824,-9.87159,0.3290131,11196761680,0.0061086523,-0.016493361,0.0018325958,11196761680,49.64453
11196770542,-0.971486,-9.868001,0.33260235,11196770542,0.007330383,-0.017715093,0.0012217305,11196770542,49.64453
11196779371,-0.96789676,-9.8727865,0.33738798,11196779371,0.007330383,-0.017104227,0.00061086525,11196779371,49.695312
11196788230,-0.951147,-9.862019,0.3290131,11196788230,0.007330383,-0.018325957,0,11196788230,49.695312
11196797073,-0.9619147,-9.866804,0.33260235,11196797073,0.0061086523,-0.018325957,0.0012217305,11196797073,49.710938
11196805923,-0.96909314,-9.866804,0.32542387,11196805923,0.007330383,-0.017715093,0.0012217305,11196805923,49.710938
11196814775,-0.9738788,-9.8727865,0.33260235,11196814775,0.008552114,-0.016493361,0.00061086525,11196814775,49.703125
11196823617,-0.9619147,-9.870394,0.33020952,11196823617,0.007941248,-0.017715093,0.0012217305,11196823617,49.703125
11196832468,-0.9667004,-9.8632145,0.3182454,11196832468,0.007941248,-0.017715093,0.0012217305,11196832468,49.703125
11196841327,-0.9499506,-9.8632145,0.31585258,11196841327,0.007941248,-0.017715093,0.00061086525,11196841327,49.703125
11196850177,-0.95712906,-9.873982,0.317049,11196850177,0.007941248,-0.018325957,0.00061086525,11196850177,49.67578
11196859025,-0.96430755,-9.865608,0.32063824,11196859025,0.0061086523,-0.017104227,0.0012217305,11196859025,49.67578
11196868013,-0.9619147,-9.868001,0.317049,11196868013,0.007941248,-0.018936822,0.00061086525,11196868013,49.710938
11196876719,-0.96789676,-9.866804,0.31944183,11196876719,0.007941248,-0.018325957,0.00061086525,11196876719,49.710938
11196885553,-0.96550393,-9.860822,0.30388847,11196885553,0.0067195175,-0.018325957,0.00061086525,11196885553,49.67578
11196894405,-0.9523434,-9.860822,0.31106696,11196894405,0.0067195175,-0.019547688,0.0012217305,11196894405,49.67578
11196903263,-0.9523434,-9.859626,0.31226337,11196903263,0.007330383,-0.017104227,0.00061086525,11196903263,49.726562
11196912113,-0.95473623,-9.857233,0.30867413,11196912113,0.007941248,-0.016493361,0.002443461,11196912113,49.726562
11196920965,-0.9607183,-9.856036,0.30987054,11196920965,0.007330383,-0.017104227,0.0012217305,11196920965,49.703125
11196929797,-0.96789676,-9.869197,0.30987054,11196929797,0.007941248,-0.018325957,0.0012217305,11196929797,49.703125
11196938650,-0.9607183,-9.859626,0.29790643,11196938650,0.007941248,-0.017104227,0.0018325958,11196938650,49.695312
11196947494,-0.9487542,-9.85484,0.29790643,11196947494,0.0067195175,-0.016493361,0.00061086525,11196947494,49.695312
11196956350,-0.95712906,-9.865608,0.31226337,11196956350,0.007330383,-0.017104227,0.00061086525,11196956350,49.695312
11196965193,-0.9667004,-9.87159,0.3182454,11196965193,0.0067195175,-0.017104227,0.00061086525,11196965193,49.695312
11196974051,-0.95712906,-9.876375,0.30987054,11196974051,0.0067195175,-0.015271631,0.0018325958,11196974051,49.71875
11196982900,-0.95473623,-9.869197,0.31465617,11196982900,0.0067195175,-0.015882496,0.0012217305,11196982900,49.71875
11196991741,-0.951147,-9.870394,0.32063824,11196991741,0.007330383,-0.016493361,0.0018325958,11196991741,49.710938
11197000595,-0.9619147,-9.87159,0.31345975,11197000595,0.0061086523,-0.015882496,0.00061086525,11197000595,49.710938
11197009453,-0.96909314,-9.85484,0.3062813,11197009453,0.0067195175,-0.015271631,0.00061086525,11197009453,49.710938
11197018297,-0.95832545,-9.858429,0.32063824,11197018297,0.008552114,-0.015882496,0.0018325958,11197018297,49.710938
11197027141,-0.951147,-9.866804,0.32662028,11197027141,0.007941248,-0.015271631,0.0012217305,11197027141,49.71875
11197035978,-0.9559326,-9.858429,0.32183465,11197035978,0.0061086523,-0.015882496,0.00061086525,11197035978,49.71875
11197044849,-0.95712906,-9.858429,0.32662028,11197044849,0.007330383,-0.017104227,0.00061086525,11197044849,49.726562
11197053690,-0.9631111,-9.866804,0.3290131,11197053690,0.007330383,-0.015882496,0.00061086525,11197053690,49.726562
11197062546,-0.96909314,-9.862019,0.32303107,11197062546,0.007941248,-0.014660766,0.0012217305,11197062546,49.66797
11197071389,-0.96909314,-9.8632145,0.3290131,11197071389,0.008552114,-0.015271631,0.0012217305,11197071389,49.66797
11197080228,-0.9607183,-9.866804,0.3182454,11197080228,0.007330383,-0.015882496,0.00061086525,11197080228,49.695312
11197089092,-0.9631111,-9.862019,0.31944183,11197089092,0.008552114,-0.015882496,0.0018325958,11197089092,49.695312
11197098039,-0.95473623,-9.860822,0.3278167,11197098039,0.007941248,-0.015271631,0.0018325958,11197098039,49.695312
11197106768,-0.951147,-9.8632145,0.31585258,11197106768,0.0061086523,-0.014660766,0.0012217305,11197106768,49.695312
11197115621,-0.95353985,-9.862019,0.32183465,11197115621,0.005497787,-0.014660766,0.0012217305,11197115621,49.66797
11197124483,-0.9631111,-9.87159,0.32183465,11197124483,0.0061086523,-0.015271631,0.0012217305,11197124483,49.66797
11197133333,-0.971486,-9.868001,0.32662028,11197133333,0.007330383,-0.015882496,0,11197133333,49.703125
11197142171,-0.96550393,-9.866804,0.32662028,11197142171,0.0067195175,-0.016493361,0.0018325958,11197142171,49.703125
11197151027,-0.9631111,-9.869197,0.33020952,11197151027,0.0067195175,-0.017104227,0.0012217305,11197151027,49.71875
11197159865,-0.9619147,-9.866804,0.3361916,11197159865,0.008552114,-0.017104227,0.00061086525,11197159865,49.71875
11197168711,-0.95712906,-9.865608,0.35413775,11197168711,0.007330383,-0.017104227,0.00061086525,11197168711,49.67578
11197177555,-0.96789676,-9.868001,0.34456646,11197177555,0.0067195175,-0.016493361,0.00061086525,11197177555,49.67578
11197186416,-0.9738788,-9.851251,0.3481557,11197186416,0.007330383,-0.016493361,0.0012217305,11197186416,49.67578
11197195275,-0.971486,-9.860822,0.3278167,11197195275,0.007330383,-0.017104227,0.00061086525,11197195275,49.67578
11197204115,-0.96789676,-9.859626,0.33379877,11197204115,0.007330383,-0.017104227,0.00061086525,11197204115,49.710938
11197212973,-0.95832545,-9.866804,0.33140594,11197212973,0.007941248,-0.017104227,0.00061086525,11197212973,49.710938
11197221812,-0.9499506,-9.858429,0.33140594,11197221812,0.007941248,-0.017104227,0.0012217305,11197221812,49.71875
11197230672,-0.9499506,-9.868001,0.3469593,11197230672,0.007330383,-0.017104227,0.0018325958,11197230672,49.71875
11197239519,-0.95473623,-9.862019,0.32422748,11197239519,0.007330383,-0.017715093,0.0012217305,11197239519,49.726562
11197248361,-0.9667004,-9.868001,0.32183465,11197248361,0.007941248,-0.017715093,0.0018325958,11197248361,49.726562
11197257205,-0.9523434,-9.856036,0.34217364,11197257205,0.007330383,-0.017104227,0.0012217305,11197257205,49.703125
11197266055,-0.96550393,-9.8632145,0.33260235,11197266055,0.0067195175,-0.018325957,0.00061086525,11197266055,49.703125
11197274902,-0.95473623,-9.865608,0.32303107,11197274902,0.0067195175,-0.018325957,0.0018325958,11197274902,49.71875
11197283749,-0.9559326,-9.858429,0.32183465,11197283749,0.0067195175,-0.018325957,0.0012217305,11197283749,49.71875
11197292593,-0.95712906,-9.8632145,0.32063824,11197292593,0.0061086523,-0.016493361,0.0018325958,11197292593,49.734375
11197301451,-0.95832545,-9.8632145,0.3182454,11197301451,0.0067195175,-0.017104227,0.002443461,11197301451,49.734375
11197310290,-0.96550393,-9.860822,0.31944183,11197310290,0.007941248,-0.017715093,0.0012217305,11197310290,49.67578
11197319132,-0.9595219,-9.8632145,0.3182454,11197319132,0.007330383,-0.018325957,0.00061086525,11197319132,49.67578
11197327976,-0.9595219,-9.864411,0.32662028,11197327976,0.007330383,-0.018325957,0.00061086525,11197327976,49.710938
11197336843,-0.96909314,-9.851251,0.32063824,11197336843,0.0067195175,-0.017715093,0.0012217305,11197336843,49.710938
11197345684,-0.9559326,-9.85484,0.30987054,11197345684,0.005497787,-0.017104227,0.00061086525,11197345684,49.66797
11197354553,-0.9523434,-9.857233,0.31585258,11197354553,0.0067195175,-0.017715093,0.00061086525,11197354553,49.66797
11197363386,-0.9607183,-9.858429,0.30508488,11197363386,0.0067195175,-0.017104227,0.0012217305,11197363386,49.726562
11197372244,-0.9631111,-9.8632145,0.30029923,11197372244,0.007330383,-0.017104227,0.0018325958,11197372244,49.726562
11197381079,-0.9667004,-9.870394,0.31106696,11197381079,0.007941248,-0.018936822,0.0012217305,11197381079,49.695312
11197389933,-0.9607183,-9.866804,0.31585258,11197389933,0.008552114,-0.017104227,0.0018325958,11197389933,49.695312
11197398778,-0.9595219,-9.865608,0.32303107,11197398778,0.007941248,-0.016493361,0.0012217305,11197398778,49.710938
11197407622,-0.9523434,-9.8632145,0.3290131,11197407622,0.007330383,-0.016493361,0.0018325958,11197407622,49.710938
11197416483,-0.951147,-9.859626,0.317049,11197416483,0.007330383,-0.016493361,0.0012217305,11197416483,49.703125
11197425325,-0.9595219,-9.857233,0.31465617,11197425325,0.005497787,-0.017104227,0,11197425325,49.703125
11197434180,-0.96430755,-9.858429,0.32303107,11197434180,0.0061086523,-0.017104227,0.0012217305,11197434180,49.726562
11197443032,-0.9631111,-9.860822,0.31226337,11197443032,0.0067195175,-0.017715093,0.0012217305,11197443032,49.726562
11197451876,-0.9595219,-9.857233,0.30508488,11197451876,0.008552114,-0.017104227,0.00061086525,11197451876,49.703125
11197460719,-0.9559326,-9.864411,0.31106696,11197460719,0.007941248,-0.015882496,0.00061086525,11197460719,49.703125
11197469587,-0.9619147,-9.859626,0.31465617,11197469587,0.0067195175,-0.017104227,0.0012217305,11197469587,49.6875
11197478427,-0.9702896,-9.866804,0.31106696,11197478427,0.008552114,-0.016493361,0.0012217305,11197478427,49.6875
11197487271,-0.95353985,-9.866804,0.31106696,11197487271,0.0061086523,-0.017104227,0.0012217305,11197487271,49.703125
11197496109,-0.9607183,-9.870394,0.31944183,11197496109,0.0061086523,-0.017104227,0.0012217305,11197496109,49.703125
11197504978,-0.95473623,-9.8632145,0.31106696,11197504978,0.007941248,-0.015882496,0.0012217305,11197504978,49.695312
11197513812,-0.9619147,-9.8632145,0.31106696,11197513812,0.007941248,-0.015882496,0.00061086525,11197513812,49.695312
11197522663,-0.9702896,-9.85484,0.3182454,11197522663,0.007941248,-0.015271631,0.0012217305,11197522663,49.710938
11197531518,-0.9702896,-9.870394,0.31226337,11197531518,0.008552114,-0.015271631,0.0012217305,11197531518,49.710938
11197540360,-0.95712906,-9.860822,0.3182454,11197540360,0.007330383,-0.015882496,0.00061086525,11197540360,49.6875
11197549214,-0.9559326,-9.860822,0.31944183,11197549214,0.0067195175,-0.015882496,0.00061086525,11197549214,49.6875
11197558069,-0.9607183,-9.8632145,0.32542387,11197558069,0.008552114,-0.014660766,0.0018325958,11197558069,49.703125
11197566912,-0.9702896,-9.8632145,0.33738798,11197566912,0.0067195175,-0.014049901,0.00061086525,11197566912,49.703125
11197575748,-0.9726824,-9.864411,0.3278167,11197575748,0.0067195175,-0.015882496,0.00061086525,11197575748,49.67578
11197584603,-0.95473623,-9.865608,0.32422748,11197584603,0.007330383,-0.016493361,0.00061086525,11197584603,49.67578
11197593451,-0.951147,-9.868001,0.3290131,11197593451,0.008552114,-0.015882496,0.00061086525,11197593451,49.703125
11197602294,-0.95353985,-9.8632145,0.33140594,11197602294,0.0067195175,-0.015271631,0.00061086525,11197602294,49.703125
11197611158,-0.9619147,-9.864411,0.33020952,11197611158,0.008552114,-0.015271631,0.00061086525,11197611158,49.726562
11197619997,-0.96909314,-9.862019,0.33260235,11197619997,0.008552114,-0.017104227,0.0018325958,11197619997,49.726562
11197628846,-0.96789676,-9.860822,0.3385844,11197628846,0.008552114,-0.017715093,0.0012217305,11197628846,49.710938
11197637690,-0.9595219,-9.865608,0.34337005,11197637690,0.008552114,-0.017715093,0.00061086525,11197637690,49.710938
11197646546,-0.9607183,-9.862019,0.3278167,11197646546,0.007941248,-0.015882496,0.0012217305,11197646546,49.66797
11197655404,-0.96909314,-9.8632145,0.32183465,11197655404,0.007330383,-0.016493361,0,11197655404,49.66797
11197664246,-0.9702896,-9.869197,0.3361916,11197664246,0.007330383,-0.016493361,0.00061086525,11197664246,49.695312
11197673106,-0.95712906,-9.865608,0.32303107,11197673106,0.007330383,-0.016493361,0.00061086525,11197673106,49.695312
11197681950,-0.9607183,-9.868001,0.3278167,11197681950,0.0061086523,-0.016493361,0.00061086525,11197681950,49.67578
11197690784,-0.95473623,-9.868001,0.32542387,11197690784,0.0067195175,-0.017715093,0.00061086525,11197690784,49.67578
11197699635,-0.971486,-9.864411,0.3385844,11197699635,0.007330383,-0.016493361,0.0012217305,11197699635,49.703125
11197708491,-0.9619147,-9.868001,0.34217364,11197708491,0.007330383,-0.016493361,0.00061086525,11197708491,49.703125
11197717335,-0.96789676,-9.868001,0.33499518,11197717335,0.0067195175,-0.017715093,0.00061086525,11197717335,49.703125
11197726181,-0.9451649,-9.875179,0.32183465,11197726181,0.0067195175,-0.017715093,0.00061086525,11197726181,49.703125
11197735038,-0.9619147,-9.8632145,0.31226337,11197735038,0.0067195175,-0.016493361,0.0012217305,11197735038,49.710938
11197743889,-0.95353985,-9.865608,0.32542387,11197743889,0.007941248,-0.017104227,0.00061086525,11197743889,49.710938
11197752740,-0.95473623,-9.868001,0.32303107,11197752740,0.007330383,-0.017104227,0.0012217305,11197752740,49.75
11197761576,-0.9595219,-9.866804,0.31585258,11197761576,0.0061086523,-0.016493361,0.0012217305,11197761576,49.75
11197770432,-0.9607183,-9.862019,0.3278167,11197770432,0.0067195175,-0.017104227,0.0012217305,11197770432,49.6875
11197779279,-0.9595219,-9.864411,0.3290131,11197779279,0.0067195175,-0.016493361,0.0012217305,11197779279,49.6875
11197788119,-0.96430755,-9.870394,0.33020952,11197788119,0.007330383,-0.016493361,0.00061086525,11197788119,49.710938
11197796962,-0.9451649,-9.8727865,0.33379877,11197796962,0.007941248,-0.017715093,0.00061086525,11197796962,49.710938
11197805817,-0.9559326,-9.869197,0.31944183,11197805817,0.007330383,-0.017715093,0.0012217305,11197805817,49.703125
11197814676,-0.95712906,-9.870394,0.31944183,11197814676,0.0061086523,-0.017104227,0.00061086525,11197814676,49.703125
11197823521,-0.9595219,-9.853643,0.33738798,11197823521,0.005497787,-0.016493361,0.00061086525,11197823521,49.695312
11197832370,-0.9667004,-9.853643,0.3182454,11197832370,0.0067195175,-0.016493361,0.0018325958,11197832370,49.695312
11197841219,-0.96909314,-9.858429,0.31226337,11197841219,0.0067195175,-0.017104227,0.0012217305,11197841219,49.734375
11197850061,-0.9631111,-9.869197,0.3278167,11197850061,0.007330383,-0.018936822,0.0012217305,11197850061,49.734375
11197858925,-0.95832545,-9.8727865,0.31345975,11197858925,0.007330383,-0.017104227,0.0012217305,11197858925,49.726562
11197867769,-0.96550393,-9.869197,0.31345975,11197867769,0.005497787,-0.016493361,0.002443461,11197867769,49.726562
11197876619,-0.95353985,-9.8632145,0.31106696,11197876619,0.005497787,-0.016493361,0.0018325958,11197876619,49.71875
11197885461,-0.95832545,-9.8632145,0.31585258,11197885461,0.007330383,-0.018325957,0.0012217305,11197885461,49.71875
11197894308,-0.9619147,-9.857233,0.30987054,11197894308,0.0061086523,-0.016493361,0.0012217305,11197894308,49.710938
11197903157,-0.9607183,-9.862019,0.32183465,11197903157,0.007941248,-0.017104227,0.0018325958,11197903157,49.710938
11197912003,-0.9595219,-9.8632145,0.31585258,11197912003,0.007941248,-0.017104227,0.00061086525,11197912003,49.703125
11197920847,-0.94755775,-9.856036,0.31585258,11197920847,0.0061086523,-0.015882496,0,11197920847,49.703125
11197929702,-0.95712906,-9.8632145,0.32422748,11197929702,0.005497787,-0.015882496,0.0012217305,11197929702,49.703125
11197938568,-0.95473623,-9.860822,0.31465617,11197938568,0.0067195175,-0.015882496,0.0012217305,11197938568,49.703125
11197947412,-0.96909314,-9.868001,0.3182454,11197947412,0.0067195175,-0.017104227,0.0012217305,11197947412,49.71875
11197956240,-0.9595219,-9.857233,0.31465617,11197956240,0.0061086523,-0.015882496,0.0018325958,11197956240,49.71875
11197965106,-0.9595219,-9.865608,0.30987054,11197965106,0.0067195175,-0.016493361,0.00061086525,11197965106,49.703125
11197973955,-0.95712906,-9.864411,0.33020952,11197973955,0.0061086523,-0.016493361,0.00061086525,11197973955,49.703125
11197982808,-0.9499506,-9.858429,0.32422748,11197982808,0.0061086523,-0.014660766,0.00061086525,11197982808,49.703125
11197991636,-0.96430755,-9.862019,0.32662028,11197991636,0.007941248,-0.015271631,0.0012217305,11197991636,49.703125
11198000487,-0.9619147,-9.8632145,0.32662028,11198000487,0.009162978,-0.015882496,0.0018325958,11198000487,49.66797
11198009343,-0.9667004,-9.866804,0.31106696,11198009343,0.007330383,-0.015882496,0.0012217305,11198009343,49.66797
11198018184,-0.9702896,-9.862019,0.32422748,11198018184,0.0067195175,-0.016493361,0,11198018184,49.66797
11198027027,-0.96430755,-9.8632145,0.31944183,11198027027,0.007330383,-0.017715093,0,11198027027,49.66797
11198035890,-0.96789676,-9.860822,0.33020952,11198035890,0.007330383,-0.017715093,0.00061086525,11198035890,49.710938
11198044728,-0.9607183,-9.862019,0.33499518,11198044728,0.005497787,-0.017104227,0.0012217305,11198044728,49.710938
11198053584,-0.9523434,-9.865608,0.33020952,11198053584,0.007330383,-0.017715093,0.0012217305,11198053584,49.660156
11198062446,-0.9451649,-9.8632145,0.34337005,11198062446,0.007330383,-0.017715093,0.00061086525,11198062446,49.660156
11198071279,-0.9607183,-9.862019,0.32662028,11198071279,0.0067195175,-0.015882496,0.00061086525,11198071279,49.703125
11198080129,-0.96430755,-9.8632145,0.32183465,11198080129,0.007330383,-0.016493361,0.0012217305,11198080129,49.703125
11198088978,-0.9631111,-9.862019,0.31465617,11198088978,0.007941248,-0.016493361,0.00061086525,11198088978,49.6875
11198097821,-0.9667004,-9.862019,0.30987054,11198097821,0.007330383,-0.015882496,0.0012217305,11198097821,49.6875
11198106687,-0.9499506,-9.866804,0.33020952,11198106687,0.0067195175,-0.015882496,0.0012217305,11198106687,49.742188
11198115523,-0.9559326,-9.868001,0.32063824,11198115523,0.0067195175,-0.015882496,0.00061086525,11198115523,49.742188
11198124375,-0.95832545,-9.857233,0.32662028,11198124375,0.007941248,-0.017715093,0.00061086525,11198124375,49.6875
11198133227,-0.9631111,-9.87159,0.3290131,11198133227,0.0061086523,-0.016493361,0,11198133227,49.6875
11198142075,-0.95712906,-9.865608,0.3278167,11198142075,0.007330383,-0.017104227,0.00061086525,11198142075,49.703125
11198150919,-0.9619147,-9.862019,0.33140594,11198150919,0.0067195175,-0.015882496,0.00061086525,11198150919,49.703125
11198159765,-0.9607183,-9.860822,0.33260235,11198159765,0.0061086523,-0.015882496,0.00061086525,11198159765,49.726562
11198168627,-0.95712906,-9.869197,0.33140594,11198168627,0.005497787,-0.015882496,0.00061086525,11198168627,49.726562
11198177471,-0.95473623,-9.864411,0.32542387,11198177471,0.008552114,-0.016493361,0.0012217305,11198177471,49.710938
11198186322,-0.96430755,-9.869197,0.31944183,11198186322,0.007330383,-0.015882496,0.00061086525,11198186322,49.710938
11198195167,-0.9702896,-9.869197,0.3182454,11198195167,0.007330383,-0.015882496,0.0012217305,11198195167,49.695312
11198204022,-0.96430755,-9.869197,0.3182454,11198204022,0.007941248,-0.016493361,0.00061086525,11198204022,49.695312
11198212872,-0.96430755,-9.859626,0.3290131,11198212872,0.007941248,-0.015882496,0.0018325958,11198212872,49.703125
11198221707,-0.95353985,-9.868001,0.3290131,11198221707,0.008552114,-0.016493361,0.0018325958,11198221707,49.703125
11198230557,-0.9595219,-9.864411,0.3361916,11198230557,0.007941248,-0.017104227,0.00061086525,11198230557,49.710938
11198239411,-0.9523434,-9.860822,0.33020952,11198239411,0.007330383,-0.017104227,0.00061086525,11198239411,49.710938
11198248257,-0.9451649,-9.850055,0.33379877,11198248257,0.007941248,-0.017104227,0.0012217305,11198248257,49.734375
11198257101,-0.9619147,-9.858429,0.3361916,11198257101,0.008552114,-0.016493361,0.0018325958,11198257101,49.734375
11198265945,-0.97507524,-9.856036,0.32422748,11198265945,0.007941248,-0.016493361,0.0018325958,11198265945,49.695312
11198274797,-0.96430755,-9.869197,0.32303107,11198274797,0.007941248,-0.016493361,0.0012217305,11198274797,49.695312
11198283660,-0.9667004,-9.865608,0.32422748,11198283660,0.008552114,-0.017715093,0.0012217305,11198283660,49.71875
11198292507,-0.95712906,-9.865608,0.3290131,11198292507,0.007330383,-0.017715093,0.00061086525,11198292507,49.71875
11198301340,-0.9451649,-9.859626,0.32542387,11198301340,0.0061086523,-0.016493361,0,11198301340,49.710938
11198310202,-0.951147,-9.859626,0.32422748,11198310202,0.007941248,-0.015882496,0.0012217305,11198310202,49.710938
11198319059,-0.9702896,-9.8632145,0.33020952,11198319059,0.007330383,-0.015882496,0.0012217305,11198319059,49.703125
11198328077,-0.95832545,-9.851251,0.32542387,11198328077,0.007330383,-0.017715093,0.0012217305,11198328077,49.703125
11198336737,-0.9631111,-9.859626,0.3278167,11198336737,0.007330383,-0.018325957,0.0012217305,11198336737,49.71875
11198345592,-0.9607183,-9.866804,0.30388847,11198345592,0.007330383,-0.017104227,0.0012217305,11198345592,49.71875
11198354427,-0.9595219,-9.868001,0.31106696,11198354427,0.007330383,-0.017715093,0.0012217305,11198354427,49.703125
11198363285,-0.9559326,-9.859626,0.31465617,11198363285,0.007330383,-0.016493361,0.0012217305,11198363285,49.703125
11198372139,-0.95473623,-9.862019,0.31465617,11198372139,0.0067195175,-0.017104227,0.00061086525,11198372139,49.71875
11198380986,-0.95832545,-9.859626,0.32662028,11198380986,0.007330383,-0.017715093,0.0012217305,11198380986,49.71875
11198389842,-0.95473623,-9.8632145,0.32303107,11198389842,0.0067195175,-0.015882496,0.0018325958,11198389842,49.64453
11198398679,-0.9595219,-9.860822,0.31944183,11198398679,0.0067195175,-0.016493361,0.00061086525,11198398679,49.64453
11198407523,-0.95832545,-9.864411,0.31585258,11198407523,0.007941248,-0.019547688,0.0012217305,11198407523,49.710938
11198416369,-0.9619147,-9.858429,0.31226337,11198416369,0.007941248,-0.017715093,0.0012217305,11198416369,49.710938
11198425226,-0.95473623,-9.865608,0.3074777,11198425226,0.0061086523,-0.017104227,0.00061086525,11198425226,49.6875
11198434074,-0.9451649,-9.8632145,0.317049,11198434074,0.007941248,-0.017104227,0.0012217305,11198434074,49.6875
11198442939,-0.95712906,-9.857233,0.31585258,11198442939,0.007941248,-0.017715093,0.0012217305,11198442939,49.695312
11198451770,-0.95832545,-9.8524475,0.31226337,11198451770,0.007330383,-0.015882496,0.0012217305,11198451770,49.695312
11198460618,-0.9667004,-9.865608,0.317049,11198460618,0.007330383,-0.015271631,0.00061086525,11198460618,49.703125
11198469478,-0.9702896,-9.857233,0.3182454,11198469478,0.007330383,-0.015882496,0.0012217305,11198469478,49.703125
11198478326,-0.95712906,-9.8632145,0.30987054,11198478326,0.007330383,-0.017715093,0.0012217305,11198478326,49.710938
11198487170,-0.95712906,-9.875179,0.32422748,11198487170,0.007330383,-0.017104227,0.0018325958,11198487170,49.710938
11198496012,-0.94396853,-9.862019,0.30867413,11198496012,0.0067195175,-0.016493361,0.0012217305,11198496012,49.71875
11198504869,-0.9667004,-9.8632145,0.30269206,11198504869,0.007941248,-0.015882496,0.0012217305,11198504869,49.71875
11198513711,-0.9607183,-9.865608,0.32063824,11198513711,0.0067195175,-0.016493361,0.0012217305,11198513711,49.6875
11198522573,-0.9607183,-9.87159,0.30987054,11198522573,0.0061086523,-0.016493361,0.0018325958,11198522573,49.6875
11198531410,-0.9607183,-9.868001,0.31345975,11198531410,0.0067195175,-0.015882496,0.00061086525,11198531410,49.710938
11198540266,-0.95832545,-9.864411,0.32183465,11198540266,0.007330383,-0.014660766,0.00061086525,11198540266,49.710938
11198549105,-0.95712906,-9.866804,0.33020952,11198549105,0.007941248,-0.015882496,0.00061086525,11198549105,49.6875
11198557949,-0.95473623,-9.866804,0.3278167,11198557949,0.007941248,-0.017104227,0,11198557949,49.6875
11198566812,-0.9595219,-9.8632145,0.32303107,11198566812,0.005497787,-0.015882496,0.0012217305,11198566812,49.64453
11198575657,-0.95473623,-9.862019,0.32063824,11198575657,0.007941248,-0.017104227,0.0012217305,11198575657,49.64453
11198584512,-0.9595219,-9.8632145,0.31944183,11198584512,0.0067195175,-0.017104227,0,11198584512,49.710938
11198593355,-0.95832545,-9.862019,0.32422748,11198593355,0.007941248,-0.015271631,0.00061086525,11198593355,49.710938
11198602213,-0.95712906,-9.864411,0.33260235,11198602213,0.0067195175,-0.014660766,0.0012217305,11198602213,49.695312
11198611060,-0.95712906,-9.862019,0.33738798,11198611060,0.007330383,-0.015271631,0.00061086525,11198611060,49.695312
11198619900,-0.951147,-9.8632145,0.33140594,11198619900,0.0067195175,-0.015882496,0.0012217305,11198619900,49.67578
11198628744,-0.9559326,-9.860822,0.33379877,11198628744,0.007330383,-0.016493361,0.0012217305,11198628744,49.67578
11198637588,-0.95473623,-9.862019,0.32542387,11198637588,0.007330383,-0.016493361,0.0012217305,11198637588,49.6875
11198646443,-0.9726824,-9.860822,0.32303107,11198646443,0.005497787,-0.016493361,0.00061086525,11198646443,49.6875
11198655302,-0.95832545,-9.859626,0.3182454,11198655302,0.007330383,-0.016493361,0.0018325958,11198655302,49.710938
11198664146,-0.9619147,-9.859626,0.33499518,11198664146,0.008552114,-0.016493361,0.0012217305,11198664146,49.710938
11198672985,-0.9631111,-9.8727865,0.33020952,11198672985,0.007941248,-0.016493361,0.0012217305,11198672985,49.703125
11198681843,-0.95473623,-9.859626,0.3469593,11198681843,0.008552114,-0.017715093,0.0012217305,11198681843,49.703125
11198690698,-0.9607183,-9.864411,0.3469593,11198690698,0.007941248,-0.016493361,0.0012217305,11198690698,49.710938
11198699531,-0.9619147,-9.851251,0.34337005,11198699531,0.0061086523,-0.016493361,0.00061086525,11198699531,49.710938
11198708384,-0.9667004,-9.862019,0.34337005,11198708384,0.0067195175,-0.016493361,0,11198708384,49.695312
11198717228,-0.9631111,-9.864411,0.33379877,11198717228,0.008552114,-0.017715093,0.00061086525,11198717228,49.695312
11198726085,-0.96430755,-9.8632145,0.3182454,11198726085,0.007330383,-0.017104227,0.00061086525,11198726085,49.726562
11198734939,-0.9487542,-9.866804,0.32303107,11198734939,0.007330383,-0.017715093,0.0012217305,11198734939,49.726562
11198743772,-0.9559326,-9.860822,0.31944183,11198743772,0.007941248,-0.017715093,0.0018325958,11198743772,49.67578
11198752627,-0.9631111,-9.868001,0.33260235,11198752627,0.007941248,-0.017104227,0.0012217305,11198752627,49.67578
11198761481,-0.96550393,-9.858429,0.32422748,11198761481,0.005497787,-0.018325957,0.00061086525,11198761481,49.703125
11198770326,-0.9595219,-9.866804,0.33738798,11198770326,0.0061086523,-0.017715093,0.0012217305,11198770326,49.703125
11198779180,-0.96789676,-9.860822,0.32422748,11198779180,0.0067195175,-0.017104227,0.00061086525,11198779180,49.64453
11198788075,-0.96550393,-9.8727865,0.32542387,11198788075,0.0067195175,-0.017104227,0.0018325958,11198788075,49.64453
11198796873,-0.9702896,-9.8632145,0.31465617,11198796873,0.0061086523,-0.017715093,0.00061086525,11198796873,49.652344
11198805714,-0.95712906,-9.8632145,0.32422748,11198805714,0.0067195175,-0.018325957,0.0018325958,11198805714,49.652344
11198814568,-0.96430755,-9.866804,0.3062813,11198814568,0.007330383,-0.017715093,0.0012217305,11198814568,49.703125
11198823430,-0.96550393,-9.870394,0.30867413,11198823430,0.007330383,-0.017715093,0.0012217305,11198823430,49.703125
11198832279,-0.9631111,-9.869197,0.30867413,11198832279,0.0067195175,-0.017715093,0.00061086525,11198832279,49.67578
11198841124,-0.9702896,-9.873982,0.30987054,11198841124,0.0067195175,-0.018325957,0.00061086525,11198841124,49.67578
11198849979,-0.9667004,-9.8727865,0.31465617,11198849979,0.0067195175,-0.016493361,0.0018325958,11198849979,49.710938
11198858818,-0.96909314,-9.869197,0.32063824,11198858818,0.0067195175,-0.017715093,0.00061086525,11198858818,49.710938
11198867662,-0.9595219,-9.860822,0.31465617,11198867662,0.007941248,-0.017715093,0.00061086525,11198867662,49.695312
11198876507,-0.9451649,-9.87159,0.32063824,11198876507,0.0067195175,-0.016493361,0.00061086525,11198876507,49.695312
11198885361,-0.96430755,-9.862019,0.3182454,11198885361,0.005497787,-0.017715093,0.0018325958,11198885361,49.67578
11198894212,-0.96550393,-9.868001,0.3182454,11198894212,0.007330383,-0.017104227,0.0012217305,11198894212,49.67578
11198903068,-0.9559326,-9.8632145,0.3074777,11198903068,0.007330383,-0.015271631,0.0018325958,11198903068,49.6875
11198911914,-0.9607183,-9.868001,0.31585258,11198911914,0.0061086523,-0.015882496,0.0012217305,11198911914,49.6875
11198920754,-0.9631111,-9.860822,0.31345975,11198920754,0.007330383,-0.017104227,0.00061086525,11198920754,49.710938
11198929618,-0.951147,-9.8632145,0.3182454,11198929618,0.0061086523,-0.016493361,0.0018325958,11198929618,49.710938
11198938460,-0.95712906,-9.857233,0.31585258,11198938460,0.007330383,-0.017715093,0.0012217305,11198938460,49.703125
11198947304,-0.9607183,-9.858429,0.32303107,11198947304,0.007330383,-0.016493361,0.00061086525,11198947304,49.703125
11198956145,-0.9595219,-9.8632145,0.33379877,11198956145,0.007330383,-0.016493361,0.0018325958,11198956145,49.6875
11198964988,-0.9619147,-9.87159,0.32063824,11198964988,0.0067195175,-0.017104227,0.0018325958,11198964988,49.6875
11198973854,-0.9631111,-9.864411,0.31345975,11198973854,0.0067195175,-0.015271631,0.0012217305,11198973854,49.710938
11198982687,-0.96909314,-9.8727865,0.30987054,11198982687,0.007330383,-0.015882496,0.00061086525,11198982687,49.710938
11198991538,-0.9631111,-9.868001,0.31585258,11198991538,0.007941248,-0.015882496,0.00061086525,11198991538,49.703125
11199000388,-0.95712906,-9.866804,0.3182454,11199000388,0.009162978,-0.016493361,0.00061086525,11199000388,49.703125
11199009248,-0.9619147,-9.8524475,0.32662028,11199009248,0.0067195175,-0.016493361,0.0018325958,11199009248,49.71875
11199018088,-0.95832545,-9.87159,0.32063824,11199018088,0.0067195175,-0.016493361,0.0018325958,11199018088,49.71875
11199026931,-0.9619147,-9.8632145,0.32183465,11199026931,0.0067195175,-0.015882496,0.00061086525,11199026931,49.710938
11199035780,-0.9667004,-9.866804,0.32542387,11199035780,0.007330383,-0.015271631,0.0012217305,11199035780,49.710938
11199044645,-0.95832545,-9.869197,0.31944183,11199044645,0.005497787,-0.015882496,0.0018325958,11199044645,49.71875
11199053496,-0.9523434,-9.8632145,0.32303107,11199053496,0.0061086523,-0.016493361,0.0012217305,11199053496,49.71875
11199062334,-0.9523434,-9.866804,0.3278167,11199062334,0.005497787,-0.016493361,0.0012217305,11199062334,49.710938
11199071176,-0.9619147,-9.8632145,0.32662028,11199071176,0.0067195175,-0.015271631,0.0012217305,11199071176,49.710938
11199080030,-0.96430755,-9.8727865,0.34337005,11199080030,0.007330383,-0.015882496,0.00061086525,11199080030,49.703125
11199088892,-0.95473623,-9.8727865,0.3278167,11199088892,0.007330383,-0.015882496,0.00061086525,11199088892,49.703125
11199097735,-0.9619147,-9.859626,0.3182454,11199097735,0.007941248,-0.016493361,0.0012217305,11199097735,49.703125
11199106586,-0.9738788,-9.858429,0.33020952,11199106586,0.007330383,-0.015882496,0.0012217305,11199106586,49.703125
11199115419,-0.9619147,-9.8632145,0.3278167,11199115419,0.007330383,-0.015882496,0.0012217305,11199115419,49.710938
11199124272,-0.9631111,-9.858429,0.3397808,11199124272,0.0067195175,-0.015271631,0.0012217305,11199124272,49.710938
11199133117,-0.9702896,-9.882358,0.33499518,11199133117,0.007330383,-0.016493361,0.0012217305,11199133117,49.710938
11199141968,-0.9559326,-9.870394,0.3361916,11199141968,0.007330383,-0.015882496,0.0012217305,11199141968,49.710938
11199150823,-0.96430755,-9.859626,0.33499518,11199150823,0.005497787,-0.017104227,0.00061086525,11199150823,49.71875
11199159663,-0.9667004,-9.8632145,0.34576288,11199159663,0.0067195175,-0.017104227,0.00061086525,11199159663,49.71875
11199168511,-0.9631111,-9.869197,0.3361916,11199168511,0.007330383,-0.018325957,0,11199168511,49.6875
11199177355,-0.96430755,-9.860822,0.3290131,11199177355,0.007941248,-0.017104227,0.0012217305,11199177355,49.6875
11199186225,-0.9702896,-9.865608,0.3278167,11199186225,0.007941248,-0.016493361,0.0018325958,11199186225,49.71875
11199195064,-0.9559326,-9.857233,0.32183465,11199195064,0.008552114,-0.017715093,0.0012217305,11199195064,49.71875
11199203902,-0.96789676,-9.864411,0.3290131,11199203902,0.005497787,-0.017715093,0.00061086525,11199203902,49.710938
11199212756,-0.96550393,-9.858429,0.32662028,11199212756,0.0061086523,-0.018936822,0.00061086525,11199212756,49.710938
11199221621,-0.96550393,-9.8632145,0.33379877,11199221621,0.0067195175,-0.018325957,0.0012217305,11199221621,49.71875
11199230453,-0.9667004,-9.8727865,0.32662028,11199230453,0.007330383,-0.017104227,0.00061086525,11199230453,49.71875
11199239320,-0.9595219,-9.8727865,0.3278167,11199239320,0.007330383,-0.017715093,0.0018325958,11199239320,49.71875
11199248184,-0.9595219,-9.8632145,0.31944183,11199248184,0.007330383,-0.016493361,0.0018325958,11199248184,49.71875
11199257005,-0.9595219,-9.8632145,0.32063824,11199257005,0.0067195175,-0.017715093,0.0012217305,11199257005,49.6875
11199265861,-0.9667004,-9.870394,0.33140594,11199265861,0.005497787,-0.018325957,0.0012217305,11199265861,49.6875
11199274698,-0.95832545,-9.864411,0.32063824,11199274698,0.0067195175,-0.017715093,0.0012217305,11199274698,49.695312
11199283548,-0.95712906,-9.858429,0.31345975,11199283548,0.0067195175,-0.016493361,0.0012217305,11199283548,49.695312
11199292390,-0.9523434,-9.87159,0.31106696,11199292390,0.007330383,-0.017715093,0.0012217305,11199292390,49.726562
11199301259,-0.9595219,-9.87159,0.31345975,11199301259,0.007941248,-0.016493361,0.0018325958,11199301259,49.726562
11199310094,-0.9499506,-9.87159,0.31106696,11199310094,0.0067195175,-0.017104227,0.00061086525,11199310094,49.660156
11199318957,-0.95473623,-9.859626,0.3182454,11199318957,0.007941248,-0.018936822,0.0012217305,11199318957,49.660156
11199327800,-0.94755775,-9.87159,0.317049,11199327800,0.007330383,-0.017715093,0.00061086525,11199327800,49.6875
11199336634,-0.9451649,-9.8632145,0.31465617,11199336634,0.0067195175,-0.017104227,0.0012217305,11199336634,49.6875
11199345489,-0.95353985,-9.8632145,0.31585258,11199345489,0.0061086523,-0.017715093,0.0018325958,11199345489,49.710938
11199354335,-0.96550393,-9.876375,0.31226337,11199354335,0.007330383,-0.016493361,0.0018325958,11199354335,49.710938
11199363198,-0.9559326,-9.873982,0.30388847,11199363198,0.007941248,-0.017104227,0.00061086525,11199363198,49.726562
11199372041,-0.9523434,-9.853643,0.32422748,11199372041,0.008552114,-0.017104227,0.0012217305,11199372041,49.726562
11199380884,-0.9499506,-9.864411,0.31944183,11199380884,0.0067195175,-0.016493361,0,11199380884,49.734375
11199389749,-0.9451649,-9.860822,0.30867413,11199389749,0.008552114,-0.017104227,0.0018325958,11199389749,49.734375
11199398593,-0.951147,-9.868001,0.31585258,11199398593,0.0061086523,-0.015882496,0.00061086525,11199398593,49.695312
11199407437,-0.9726824,-9.873982,0.31585258,11199407437,0.0067195175,-0.016493361,0.00061086525,11199407437,49.695312
11199416286,-0.96430755,-9.858429,0.31106696,11199416286,0.007941248,-0.016493361,0.0012217305,11199416286,49.67578
11199425130,-0.95832545,-9.869197,0.3290131,11199425130,0.007941248,-0.017104227,0.00061086525,11199425130,49.67578
11199433987,-0.9523434,-9.864411,0.31465617,11199433987,0.008552114,-0.015271631,0,11199433987,49.695312
11199442836,-0.9487542,-9.858429,0.30508488,11199442836,0.0067195175,-0.015271631,0.0012217305,11199442836,49.695312
11199451673,-0.9559326,-9.8632145,0.31345975,11199451673,0.007330383,-0.015882496,0.0012217305,11199451673,49.71875
11199460520,-0.9559326,-9.857233,0.31106696,11199460520,0.0067195175,-0.015882496,0.00061086525,11199460520,49.71875
11199469369,-0.95473623,-9.870394,0.30867413,11199469369,0.007330383,-0.016493361,0.0012217305,11199469369,49.734375
11199478230,-0.96550393,-9.8727865,0.317049,11199478230,0.0067195175,-0.015271631,0.0012217305,11199478230,49.734375
11199487074,-0.96550393,-9.868001,0.32542387,11199487074,0.0067195175,-0.014660766,0,11199487074,49.71875
11199495915,-0.96550393,-9.868001,0.32542387,11199495915,0.007330383,-0.014660766,0.00061086525,11199495915,49.71875
11199504760,-0.9595219,-9.8727865,0.3278167,11199504760,0.007330383,-0.015882496,0.0012217305,11199504760,49.703125
11199513607,-0.95473623,-9.864411,0.32542387,11199513607,0.007330383,-0.017104227,0.0018325958,11199513607,49.703125
11199522464,-0.9607183,-9.860822,0.31944183,11199522464,0.0061086523,-0.016493361,0.0012217305,11199522464,49.6875
11199531310,-0.95353985,-9.853643,0.32662028,11199531310,0.007330383,-0.015271631,0.00061086525,11199531310,49.6875
11199540155,-0.96430755,-9.865608,0.3361916,11199540155,0.0067195175,-0.014660766,0.00061086525,11199540155,49.695312
11199549007,-0.97507524,-9.868001,0.33020952,11199549007,0.007330383,-0.015882496,0.00061086525,11199549007,49.695312
11199558008,-0.96550393,-9.858429,0.3361916,11199558008,0.007330383,-0.016493361,0.00061086525,11199558008,49.710938
11199566714,-0.9523434,-9.859626,0.32422748,11199566714,0.007941248,-0.016493361,0.0012217305,11199566714,49.710938
11199575557,-0.95473623,-9.862019,0.3397808,11199575557,0.0067195175,-0.017715093,0.0012217305,11199575557,49.6875
11199584413,-0.9595219,-9.862019,0.3278167,11199584413,0.0061086523,-0.017715093,0.0012217305,11199584413,49.6875
11199593252,-0.971486,-9.862019,0.3278167,11199593252,0.0067195175,-0.017104227,0.00061086525,11199593252,49.710938
11199602094,-0.96550393,-9.865608,0.32662028,11199602094,0.0067195175,-0.015882496,0.00061086525,11199602094,49.710938
11199610947,-0.95473623,-9.869197,0.33140594,11199610947,0.007941248,-0.016493361,0.0012217305,11199610947,49.703125
11199619799,-0.9487542,-9.865608,0.34097722,11199619799,0.008552114,-0.017104227,0.00061086525,11199619799,49.703125
11199628656,-0.95473623,-9.870394,0.32303107,11199628656,0.007941248,-0.017104227,0.00061086525,11199628656,49.710938
11199637500,-0.9559326,-9.868001,0.33140594,11199637500,0.007330383,-0.016493361,0.0012217305,11199637500,49.710938
11199646342,-0.95353985,-9.862019,0.3290131,11199646342,0.007330383,-0.017715093,0.00061086525,11199646342,49.703125
11199655202,-0.96909314,-9.8632145,0.3290131,11199655202,0.007941248,-0.017715093,0.00061086525,11199655202,49.703125
11199664051,-0.96550393,-9.862019,0.31585258,11199664051,0.0067195175,-0.017104227,0.00061086525,11199664051,49.710938
11199672893,-0.95712906,-9.856036,0.32542387,11199672893,0.0067195175,-0.017104227,0.00061086525,11199672893,49.710938
11199681752,-0.96789676,-9.850055,0.32183465,11199681752,0.007330383,-0.018325957,0,11199681752,49.71875
11199690600,-0.9619147,-9.862019,0.3290131,11199690600,0.0067195175,-0.018325957,0,11199690600,49.71875
11199699439,-0.9595219,-9.866804,0.3385844,11199699439,0.007941248,-0.018325957,0.00061086525,11199699439,49.703125
11199708301,-0.9523434,-9.868001,0.32542387,11199708301,0.007330383,-0.017715093,0.00061086525,11199708301,49.703125
11199717144,-0.94277215,-9.8632145,0.3278167,11199717144,0.0067195175,-0.017715093,0.00061086525,11199717144,49.71875
11199725982,-0.95832545,-9.862019,0.32662028,11199725982,0.007941248,-0.018325957,0.0012217305,11199725982,49.71875
11199734833,-0.9702896,-9.870394,0.3182454,11199734833,0.0067195175,-0.017715093,0.0012217305,11199734833,49.695312
11199743669,-0.9523434,-9.864411,0.3278167,11199743669,0.007330383,-0.017104227,0.0012217305,11199743669,49.695312
11199752542,-0.95473623,-9.862019,0.31944183,11199752542,0.007941248,-0.017715093,0.00061086525,11199752542,49.660156
11199761381,-0.95832545,-9.862019,0.32183465,11199761381,0.009773844,-0.017715093,0.00061086525,11199761381,49.660156
11199770223,-0.9595219,-9.85484,0.33260235,11199770223,0.008552114,-0.017104227,0.0012217305,11199770223,49.710938
11199779074,-0.96550393,-9.865608,0.31944183,11199779074,0.0061086523,-0.018325957,0.0012217305,11199779074,49.710938
11199787918,-0.9702896,-9.868001,0.3278167,11199787918,0.0061086523,-0.018325957,0.0018325958,11199787918,49.6875
11199796765,-0.96789676,-9.870394,0.31944183,11199796765,0.007330383,-0.017715093,0.00061086525,11199796765,49.6875
11199805622,-0.96550393,-9.869197,0.30269206,11199805622,0.007941248,-0.016493361,0.0012217305,11199805622,49.710938
11199814462,-0.9499506,-9.865608,0.3062813,11199814462,0.007330383,-0.015882496,0.0012217305,11199814462,49.710938
11199823310,-0.9487542,-9.869197,0.30867413,11199823310,0.007330383,-0.015271631,0.0012217305,11199823310,49.6875
11199832170,-0.95353985,-9.8632145,0.31226337,11199832170,0.007941248,-0.016493361,0.0012217305,11199832170,49.6875
11199841022,-0.9702896,-9.8632145,0.32183465,11199841022,0.007330383,-0.016493361,0.00061086525,11199841022,49.703125
11199849867,-0.9619147,-9.853643,0.3278167,11199849867,0.007941248,-0.017104227,0.0012217305,11199849867,49.703125
11199858708,-0.96909314,-9.870394,0.31944183,11199858708,0.0067195175,-0.015882496,0.0012217305,11199858708,49.6875
11199867552,-0.9595219,-9.864411,0.30987054,11199867552,0.007330383,-0.017104227,0.0012217305,11199867552,49.6875
11199876408,-0.9631111,-9.869197,0.31585258,11199876408,0.007330383,-0.017715093,0.0012217305,11199876408,49.6875
11199885261,-0.9559326,-9.868001,0.317049,11199885261,0.007330383,-0.016493361,0.00061086525,11199885261,49.6875
11199894105,-0.95832545,-9.870394,0.31585258,11199894105,0.007330383,-0.015882496,0,11199894105,49.710938
11199902964,-0.9595219,-9.857233,0.3278167,11199902964,0.007941248,-0.016493361,0.0012217305,11199902964,49.710938
11199911819,-0.95473623,-9.8524475,0.3278167,11199911819,0.007330383,-0.015882496,0.0012217305,11199911819,49.695312
11199920665,-0.9702896,-9.858429,0.3290131,11199920665,0.007941248,-0.014660766,0.0018325958,11199920665,49.695312
11199929509,-0.9619147,-9.8727865,0.32063824,11199929509,0.007941248,-0.015271631,0.0012217305,11199929509,49.66797
11199938350,-0.96430755,-9.862019,0.33260235,11199938350,0.0067195175,-0.015271631,0.00061086525,11199938350,49.66797
11199947194,-0.9619147,-9.866804,0.3290131,11199947194,0.0067195175,-0.015882496,0.00061086525,11199947194,49.726562
11199956051,-0.94636136,-9.868001,0.3278167,11199956051,0.007941248,-0.016493361,0.00061086525,11199956051,49.726562
11199964888,-0.9559326,-9.859626,0.32422748,11199964888,0.007941248,-0.015882496,0,11199964888,49.726562
11199973741,-0.9595219,-9.870394,0.32542387,11199973741,0.007941248,-0.016493361,0.0018325958,11199973741,49.726562
11199982599,-0.9702896,-9.864411,0.3278167,11199982599,0.007330383,-0.017715093,0.0018325958,11199982599,49.6875
11199991435,-0.9607183,-9.865608,0.31585258,11199991435,0.007941248,-0.016493361,0.0018325958,11199991435,49.6875
11200000282,-0.9619147,-9.8727865,0.33260235,11200000282,0.0061086523,-0.015271631,0.00061086525,11200000282,49.66797
11200009156,-0.9499506,-9.8632145,0.33020952,11200009156,0.0061086523,-0.015882496,0.0012217305,11200009156,49.66797
11200018050,-0.96430755,-9.859626,0.32303107,11200018050,0.007330383,-0.017104227,0.0012217305,11200018050,49.703125
11200026848,-0.95353985,-9.870394,0.317049,11200026848,0.008552114,-0.015271631,0.0012217305,11200026848,49.703125
11200035688,-0.95712906,-9.864411,0.31585258,11200035688,0.007941248,-0.015882496,0,11200035688,49.6875
11200044543,-0.971486,-9.869197,0.33379877,11200044543,0.007941248,-0.016493361,0.00061086525,11200044543,49.6875
11200053384,-0.97507524,-9.860822,0.32183465,11200053384,0.007330383,-0.015882496,0.0012217305,11200053384,49.710938
11200062227,-0.971486,-9.8632145,0.32063824,11200062227,0.0067195175,-0.017104227,0.0012217305,11200062227,49.710938
11200071085,-0.9607183,-9.8632145,0.33260235,11200071085,0.0061086523,-0.018325957,0.0012217305,11200071085,49.695312
11200079925,-0.9487542,-9.866804,0.32662028,11200079925,0.0061086523,-0.017104227,0.0018325958,11200079925,49.695312
11200088782,-0.95712906,-9.869197,0.3278167,11200088782,0.007330383,-0.017104227,0.0012217305,11200088782,49.703125
11200097626,-0.9607183,-9.873982,0.32662028,11200097626,0.007330383,-0.017104227,0.00061086525,11200097626,49.703125
11200106468,-0.9619147,-9.875179,0.32542387,11200106468,0.007941248,-0.017104227,0.0012217305,11200106468,49.695312
11200115332,-0.9607183,-9.875179,0.32303107,11200115332,0.009162978,-0.015882496,0.0012217305,11200115332,49.695312
11200124172,-0.96550393,-9.865608,0.32662028,11200124172,0.008552114,-0.016493361,0.00061086525,11200124172,49.703125
11200133025,-0.96430755,-9.864411,0.32542387,11200133025,0.007330383,-0.017104227,0,11200133025,49.703125
11200141867,-0.9631111,-9.868001,0.31944183,11200141867,0.007941248,-0.016493361,0.00061086525,11200141867,49.71875
11200150719,-0.96550393,-9.868001,0.317049,11200150719,0.007941248,-0.018325957,0.00061086525,11200150719,49.71875
11200159560,-0.96789676,-9.866804,0.3361916,11200159560,0.0067195175,-0.018325957,0.00061086525,11200159560,49.710938
11200168411,-0.9631111,-9.864411,0.32303107,11200168411,0.007941248,-0.017715093,0,11200168411,49.710938
11200177255,-0.96550393,-9.869197,0.32183465,11200177255,0.007330383,-0.016493361,0,11200177255,49.703125
11200186111,-0.9667004,-9.870394,0.32662028,11200186111,0.0067195175,-0.016493361,0.0012217305,11200186111,49.703125
11200194973,-0.95832545,-9.869197,0.33140594,11200194973,0.0067195175,-0.017104227,0.0012217305,11200194973,49.67578
11200203818,-0.9499506,-9.866804,0.32542387,11200203818,0.007941248,-0.017104227,0.0012217305,11200203818,49.67578
11200212667,-0.96550393,-9.870394,0.3278167,11200212667,0.007330383,-0.017104227,0.0018325958,11200212667,49.703125
11200221507,-0.9595219,-9.8727865,0.32063824,11200221507,0.008552114,-0.015882496,0.0018325958,11200221507,49.703125
11200230351,-0.9667004,-9.860822,0.32183465,11200230351,0.009162978,-0.017715093,0.0012217305,11200230351,49.703125
11200239202,-0.96789676,-9.869197,0.32542387,11200239202,0.007941248,-0.017104227,0.0012217305,11200239202,49.703125
11200248160,-0.96789676,-9.869197,0.32422748,11200248160,0.007330383,-0.018936822,0.0012217305,11200248160,49.734375
11200256912,-0.96789676,-9.862019,0.32662028,11200256912,0.005497787,-0.017104227,0.0012217305,11200256912,49.734375
11200265753,-0.95832545,-9.865608,0.32422748,11200265753,0.0067195175,-0.016493361,0.0012217305,11200265753,49.734375
11200274599,-0.9451649,-9.865608,0.32183465,11200274599,0.0067195175,-0.017715093,0.0012217305,11200274599,49.734375
11200283449,-0.95353985,-9.865608,0.32542387,11200283449,0.007330383,-0.017104227,0.0012217305,11200283449,49.703125
11200292308,-0.95473623,-9.862019,0.32662028,11200292308,0.008552114,-0.017104227,0.0018325958,11200292308,49.703125
11200301160,-0.971486,-9.865608,0.32303107,11200301160,0.008552114,-0.016493361,0.0012217305,11200301160,49.71875
11200309988,-0.9702896,-9.865608,0.32063824,11200309988,0.007941248,-0.016493361,0.0012217305,11200309988,49.71875
11200318832,-0.96550393,-9.859626,0.3278167,11200318832,0.007330383,-0.017104227,0.0012217305,11200318832,49.652344
11200327675,-0.95712906,-9.8632145,0.3182454,11200327675,0.007941248,-0.017104227,0.0012217305,11200327675,49.652344
11200336538,-0.9619147,-9.860822,0.31106696,11200336538,0.007941248,-0.017104227,0.00061086525,11200336538,49.703125
11200345390,-0.95353985,-9.868001,0.3074777,11200345390,0.0067195175,-0.017104227,0.00061086525,11200345390,49.703125
11200354251,-0.9607183,-9.868001,0.32662028,11200354251,0.007941248,-0.017715093,0.00061086525,11200354251,49.652344
11200363082,-0.9667004,-9.866804,0.31944183,11200363082,0.0061086523,-0.015882496,0.00061086525,11200363082,49.652344
11200371940,-0.9595219,-9.858429,0.3182454,11200371940,0.0067195175,-0.017104227,0.0012217305,11200371940,49.66797
11200380793,-0.951147,-9.865608,0.3290131,11200380793,0.008552114,-0.017715093,0.00061086525,11200380793,49.66797
11200389626,-0.9451649,-9.868001,0.3182454,11200389626,0.0067195175,-0.016493361,0.0018325958,11200389626,49.703125
11200398490,-0.94277215,-9.857233,0.32542387,11200398490,0.007330383,-0.014660766,0.00061086525,11200398490,49.703125
11200407334,-0.9619147,-9.870394,0.32303107,11200407334,0.007330383,-0.015271631,0.00061086525,11200407334,49.742188
11200416188,-0.9595219,-9.853643,0.32183465,11200416188,0.007941248,-0.016493361,0.00061086525,11200416188,49.742188
11200425024,-0.96909314,-9.8727865,0.3062813,11200425024,0.007941248,-0.016493361,0.0012217305,11200425024,49.710938
11200433886,-0.96789676,-9.862019,0.3182454,11200433886,0.007330383,-0.015271631,0.00061086525,11200433886,49.710938
11200442731,-0.9738788,-9.868001,0.3290131,11200442731,0.007941248,-0.015882496,0.00061086525,11200442731,49.6875
11200451581,-0.9595219,-9.868001,0.3290131,11200451581,0.007330383,-0.015882496,0.0012217305,11200451581,49.6875
11200460423,-0.96550393,-9.868001,0.31944183,11200460423,0.007330383,-0.017104227,0.00061086525,11200460423,49.695312
11200469264,-0.951147,-9.865608,0.33499518,11200469264,0.007330383,-0.016493361,0.00061086525,11200469264,49.695312
11200478154,-0.9487542,-9.864411,0.33499518,11200478154,0.007330383,-0.015882496,0.0012217305,11200478154,49.742188
11200486975,-0.9631111,-9.868001,0.32422748,11200486975,0.009162978,-0.016493361,0.0018325958,11200486975,49.742188
11200495825,-0.97507524,-9.864411,0.32063824,11200495825,0.008552114,-0.016493361,0.00061086525,11200495825,49.710938
11200504666,-0.9523434,-9.864411,0.32303107,11200504666,0.007330383,-0.015882496,-0.00061086525,11200504666,49.710938
11200513519,-0.95712906,-9.866804,0.31944183,11200513519,0.0067195175,-0.015882496,0.00061086525,11200513519,49.695312
11200522358,-0.9451649,-9.868001,0.3278167,11200522358,0.008552114,-0.016493361,0.0012217305,11200522358,49.695312
11200531211,-0.96430755,-9.869197,0.3397808,11200531211,0.007330383,-0.015882496,0.0012217305,11200531211,49.6875
11200540064,-0.971486,-9.865608,0.33020952,11200540064,0.0061086523,-0.017104227,0.00061086525,11200540064,49.6875
11200548913,-0.9619147,-9.868001,0.33379877,11200548913,0.0061086523,-0.018325957,0.00061086525,11200548913,49.695312
11200557756,-0.96430755,-9.870394,0.33260235,11200557756,0.01038471,-0.017104227,0.00061086525,11200557756,49.695312
11200566617,-0.9607183,-9.870394,0.31585258,11200566617,0.008552114,-0.016493361,0.00061086525,11200566617,49.6875
11200575455,-0.96550393,-9.866804,0.32542387,11200575455,0.008552114,-0.015882496,0.0012217305,11200575455,49.6875
11200584300,-0.9559326,-9.869197,0.3290131,11200584300,0.008552114,-0.016493361,0.0012217305,11200584300,49.710938
11200593147,-0.95712906,-9.858429,0.32662028,11200593147,0.008552114,-0.017104227,0.0012217305,11200593147,49.710938
11200601995,-0.96789676,-9.868001,0.32542387,11200601995,0.007941248,-0.015882496,0.0012217305,11200601995,49.695312
11200610861,-0.95712906,-9.8632145,0.33260235,11200610861,0.007941248,-0.015882496,0.0012217305,11200610861,49.695312
11200619691,-0.9607183,-9.8632145,0.33140594,11200619691,0.007330383,-0.015882496,0.0012217305,11200619691,49.71875
11200628541,-0.9738788,-9.858429,0.33738798,11200628541,0.007941248,-0.016493361,0.0012217305,11200628541,49.71875
11200637385,-0.9702896,-9.8632145,0.3278167,11200637385,0.007941248,-0.017104227,0.00061086525,11200637385,49.703125
11200646242,-0.9487542,-9.859626,0.32542387,11200646242,0.007330383,-0.018936822,0.0012217305,11200646242,49.703125
11200655089,-0.95832545,-9.869197,0.3290131,11200655089,0.007330383,-0.017104227,0.0012217305,11200655089,49.71875
11200663944,-0.9487542,-9.860822,0.3182454,11200663944,0.0067195175,-0.017715093,0.0012217305,11200663944,49.71875
11200672783,-0.9619147,-9.865608,0.33020952,11200672783,0.007330383,-0.016493361,0.0018325958,11200672783,49.6875
11200681645,-0.9738788,-9.8632145,0.32542387,11200681645,0.007941248,-0.017104227,0.0012217305,11200681645,49.6875
11200690499,-0.96430755,-9.862019,0.3290131,11200690499,0.0067195175,-0.016493361,0.0012217305,11200690499,49.660156
11200699330,-0.9559326,-9.8632145,0.32063824,11200699330,0.007330383,-0.017715093,0.0012217305,11200699330,49.660156
11200708184,-0.9559326,-9.870394,0.3278167,11200708184,0.008552114,-0.016493361,0.00061086525,11200708184,49.726562
11200717028,-0.9631111,-9.868001,0.32662028,11200717028,0.0067195175,-0.017104227,0.00061086525,11200717028,49.726562
11200725881,-0.95832545,-9.864411,0.31585258,11200725881,0.007941248,-0.017104227,0,11200725881,49.67578
11200734725,-0.9702896,-9.865608,0.32422748,11200734725,0.007330383,-0.017715093,0.0012217305,11200734725,49.67578
11200743573,-0.95473623,-9.869197,0.32303107,11200743573,0.0061086523,-0.016493361,0.0018325958,11200743573,49.734375
11200752419,-0.95712906,-9.865608,0.33020952,11200752419,0.007330383,-0.015882496,0.0012217305,11200752419,49.734375
11200761281,-0.95712906,-9.862019,0.33020952,11200761281,0.007330383,-0.017104227,0.00061086525,11200761281,49.695312
11200770121,-0.95832545,-9.857233,0.31944183,11200770121,0.0067195175,-0.017715093,0.0012217305,11200770121,49.695312
11200778982,-0.95353985,-9.864411,0.32063824,11200778982,0.007941248,-0.017104227,0.00061086525,11200778982,49.67578
11200787826,-0.9595219,-9.865608,0.31465617,11200787826,0.0067195175,-0.017104227,0.0018325958,11200787826,49.67578
11200796683,-0.971486,-9.865608,0.317049,11200796683,0.0061086523,-0.016493361,0.00061086525,11200796683,49.66797
11200805527,-0.9619147,-9.865608,0.31106696,11200805527,0.0061086523,-0.016493361,0.0012217305,11200805527,49.66797
11200814368,-0.9595219,-9.870394,0.31465617,11200814368,0.007330383,-0.015882496,0.0018325958,11200814368,49.67578
11200823217,-0.9595219,-9.858429,0.31226337,11200823217,0.007941248,-0.017104227,0.00061086525,11200823217,49.67578
11200832078,-0.9667004,-9.859626,0.32303107,11200832078,0.007941248,-0.016493361,0.00061086525,11200832078,49.67578
11200840922,-0.95473623,-9.8632145,0.317049,11200840922,0.007330383,-0.016493361,0.0012217305,11200840922,49.67578
11200849760,-0.9499506,-9.866804,0.317049,11200849760,0.007330383,-0.018325957,0.0012217305,11200849760,49.703125
11200858613,-0.9631111,-9.858429,0.31345975,11200858613,0.007330383,-0.018325957,0.00061086525,11200858613,49.703125
11200867457,-0.9631111,-9.865608,0.317049,11200867457,0.0067195175,-0.015882496,0.0012217305,11200867457,49.66797
11200876306,-0.9631111,-9.866804,0.30987054,11200876306,0.007941248,-0.016493361,0.0012217305,11200876306,49.66797
11200885156,-0.96909314,-9.869197,0.3074777,11200885156,0.007330383,-0.016493361,0.00061086525,11200885156,49.734375
11200894015,-0.95832545,-9.860822,0.317049,11200894015,0.007330383,-0.015882496,0.0012217305,11200894015,49.734375
11200902848,-0.9559326,-9.8632145,0.30508488,11200902848,0.0067195175,-0.015271631,0.0012217305,11200902848,49.710938
11200911697,-0.95832545,-9.862019,0.3182454,11200911697,0.007330383,-0.015882496,0.0018325958,11200911697,49.710938
11200920551,-0.95473623,-9.866804,0.32063824,11200920551,0.009162978,-0.016493361,0.0012217305,11200920551,49.710938
11200929393,-0.9702896,-9.866804,0.3182454,11200929393,0.007941248,-0.016493361,0.00061086525,11200929393,49.710938
11200938246,-0.96430755,-9.858429,0.31226337,11200938246,0.007330383,-0.017104227,0.00061086525,11200938246,49.71875
11200947090,-0.9595219,-9.869197,0.31226337,11200947090,0.0061086523,-0.015882496,0.00061086525,11200947090,49.71875
11200955959,-0.9451649,-9.865608,0.33020952,11200955959,0.007941248,-0.015882496,0.00061086525,11200955959,49.726562
11200964806,-0.9559326,-9.860822,0.3182454,11200964806,0.008552114,-0.017104227,0.0012217305,11200964806,49.726562
11200973634,-0.95712906,-9.8632145,0.33140594,11200973634,0.0061086523,-0.016493361,0.0018325958,11200973634,49.6875
11200982503,-0.9559326,-9.862019,0.32422748,11200982503,0.0061086523,-0.016493361,0.0012217305,11200982503,49.6875
11200991352,-0.9667004,-9.858429,0.33020952,11200991352,0.009162978,-0.017104227,0.00061086525,11200991352,49.71875
11201000193,-0.9559326,-9.8632145,0.3278167,11201000193,0.007330383,-0.014660766,0.00061086525,11201000193,49.71875
11201009036,-0.95712906,-9.858429,0.33260235,11201009036,0.007941248,-0.017104227,0.0012217305,11201009036,49.742188
11201017880,-0.95832545,-9.87159,0.33140594,11201017880,0.007941248,-0.017104227,0.0018325958,11201017880,49.742188
11201026745,-0.951147,-9.860822,0.32542387,11201026745,0.0067195175,-0.017715093,0.00061086525,11201026745,49.734375
11201035584,-0.9487542,-9.859626,0.32063824,11201035584,0.007330383,-0.017104227,0.0012217305,11201035584,49.734375
11201044438,-0.96550393,-9.865608,0.33140594,11201044438,0.007941248,-0.017104227,0.00061086525,11201044438,49.71875
11201053291,-0.95473623,-9.868001,0.3397808,11201053291,0.007330383,-0.017104227,0.0012217305,11201053291,49.71875
11201062139,-0.971486,-9.869197,0.3361916,11201062139,0.007330383,-0.015882496,0.0018325958,11201062139,49.63672
11201070992,-0.9702896,-9.877572,0.33260235,11201070992,0.007941248,-0.016493361,0.0012217305,11201070992,49.63672
11201079842,-0.96789676,-9.866804,0.3397808,11201079842,0.007330383,-0.015271631,0.00061086525,11201079842,49.695312
11201088680,-0.95712906,-9.860822,0.33020952,11201088680,0.0067195175,-0.017104227,0.0012217305,11201088680,49.695312
11201097524,-0.9499506,-9.8632145,0.32662028,11201097524,0.0067195175,-0.016493361,0.0012217305,11201097524,49.703125
11201106370,-0.95832545,-9.866804,0.31465617,11201106370,0.008552114,-0.017104227,0.00061086525,11201106370,49.703125
11201115218,-0.9619147,-9.868001,0.31944183,11201115218,0.007330383,-0.018325957,0.00061086525,11201115218,49.734375
11201124075,-0.9619147,-9.862019,0.3290131,11201124075,0.007941248,-0.017104227,0,11201124075,49.734375
11201132922,-0.96909314,-9.862019,0.33260235,11201132922,0.007941248,-0.016493361,0.0012217305,11201132922,49.71875
11201141755,-0.971486,-9.868001,0.3278167,11201141755,0.007330383,-0.015882496,0,11201141755,49.71875
11201150624,-0.96430755,-9.8632145,0.33499518,11201150624,0.007330383,-0.017715093,0.0018325958,11201150624,49.703125
11201159470,-0.9667004,-9.865608,0.33140594,11201159470,0.007941248,-0.016493361,0.0012217305,11201159470,49.703125
11201168317,-0.9619147,-9.865608,0.32542387,11201168317,0.007941248,-0.015882496,0,11201168317,49.695312
11201177161,-0.9607183,-9.860822,0.3182454,11201177161,0.009162978,-0.016493361,0.0012217305,11201177161,49.695312
11201186010,-0.95712906,-9.87159,0.32542387,11201186010,0.0067195175,-0.017104227,0.0012217305,11201186010,49.703125
11201194852,-0.96430755,-9.870394,0.31465617,11201194852,0.0067195175,-0.017715093,0.00061086525,11201194852,49.703125
11201203723,-0.9631111,-9.869197,0.31944183,11201203723,0.005497787,-0.016493361,0,11201203723,49.66797
11201212572,-0.9559326,-9.862019,0.32303107,11201212572,0.0067195175,-0.016493361,0,11201212572,49.66797
11201221421,-0.95473623,-9.870394,0.32063824,11201221421,0.007330383,-0.017104227,0.00061086525,11201221421,49.695312
11201230257,-0.9523434,-9.870394,0.3278167,11201230257,0.0067195175,-0.018325957,0.00061086525,11201230257,49.695312
11201239105,-0.9619147,-9.868001,0.3182454,11201239105,0.0067195175,-0.018325957,0.0018325958,11201239105,49.695312
11201248043,-0.95832545,-9.862019,0.32542387,11201248043,0.007330383,-0.017104227,0.0012217305,11201248043,49.695312
11201256795,-0.9667004,-9.85484,0.3182454,11201256795,0.007941248,-0.017104227,0.0012217305,11201256795,49.652344
11201265640,-0.95712906,-9.870394,0.31226337,11201265640,0.0067195175,-0.017104227,0.0012217305,11201265640,49.652344
11201274497,-0.9451649,-9.869197,0.31944183,11201274497,0.0067195175,-0.016493361,0.0012217305,11201274497,49.726562
11201283347,-0.9499506,-9.8632145,0.31226337,11201283347,0.007330383,-0.017104227,0.00061086525,11201283347,49.726562
11201292194,-0.95712906,-9.87159,0.32183465,11201292194,0.007941248,-0.017104227,0.0012217305,11201292194,49.67578
11201301059,-0.96430755,-9.860822,0.31944183,11201301059,0.007330383,-0.017715093,0.0012217305,11201301059,49.67578
11201309908,-0.9619147,-9.868001,0.3182454,11201309908,0.0067195175,-0.017104227,0.0012217305,11201309908,49.710938
11201318738,-0.9619147,-9.865608,0.31465617,11201318738,0.0067195175,-0.016493361,0.00061086525,11201318738,49.710938
11201327582,-0.95832545,-9.865608,0.31106696,11201327582,0.007330383,-0.016493361,0.00061086525,11201327582,49.66797
11201336430,-0.9619147,-9.865608,0.31226337,11201336430,0.007330383,-0.015882496,0.00061086525,11201336430,49.66797
11201345288,-0.9631111,-9.865608,0.31465617,11201345288,0.0067195175,-0.017104227,0.00061086525,11201345288,49.710938
11201354136,-0.94636136,-9.873982,0.31106696,11201354136,0.0067195175,-0.015271631,0.0012217305,11201354136,49.710938
11201362990,-0.9415757,-9.862019,0.32542387,11201362990,0.0067195175,-0.016493361,0.0012217305,11201362990,49.660156
11201371835,-0.9595219,-9.857233,0.32063824,11201371835,0.0067195175,-0.015882496,0.00061086525,11201371835,49.660156
11201380687,-0.96550393,-9.865608,0.3182454,11201380687,0.0061086523,-0.016493361,0.00061086525,11201380687,49.71875
11201389537,-0.96550393,-9.858429,0.317049,11201389537,0.007330383,-0.017104227,0.00061086525,11201389537,49.71875
11201398377,-0.95712906,-9.870394,0.3278167,11201398377,0.007941248,-0.017715093,0.0018325958,11201398377,49.695312
11201407221,-0.95353985,-9.865608,0.32183465,11201407221,0.007330383,-0.015882496,0.00061086525,11201407221,49.695312
11201416082,-0.9523434,-9.860822,0.31944183,11201416082,0.007941248,-0.015882496,0.0012217305,11201416082,49.71875
11201424925,-0.9631111,-9.8632145,0.32422748,11201424925,0.007941248,-0.015882496,0.00061086525,11201424925,49.71875
11201433781,-0.96909314,-9.862019,0.32662028,11201433781,0.007941248,-0.017104227,0.0012217305,11201433781,49.695312
11201442629,-0.96430755,-9.873982,0.32303107,11201442629,0.0061086523,-0.017104227,0.00061086525,11201442629,49.695312
11201451478,-0.96550393,-9.85484,0.3361916,11201451478,0.0061086523,-0.017104227,0.00061086525,11201451478,49.6875
11201460320,-0.95353985,-9.865608,0.33499518,11201460320,0.007941248,-0.016493361,0.00061086525,11201460320,49.6875
11201469176,-0.95712906,-9.8632145,0.32662028,11201469176,0.007941248,-0.016493361,0.0012217305,11201469176,49.652344
11201478144,-0.9619147,-9.868001,0.32063824,11201478144,0.009162978,-0.015271631,0.0018325958,11201478144,49.652344
11201486873,-0.96550393,-9.868001,0.33260235,11201486873,0.007941248,-0.016493361,0.0018325958,11201486873,49.710938
11201495725,-0.96909314,-9.859626,0.32662028,11201495725,0.0067195175,-0.016493361,0.00061086525,11201495725,49.710938
11201504564,-0.9499506,-9.859626,0.34097722,11201504564,0.007330383,-0.015882496,0.00061086525,11201504564,49.710938
11201513421,-0.9499506,-9.870394,0.33260235,11201513421,0.0067195175,-0.017715093,0.0012217305,11201513421,49.710938
11201522262,-0.96430755,-9.864411,0.33020952,11201522262,0.007330383,-0.017715093,0.00061086525,11201522262,49.695312
11201531114,-0.9738788,-9.862019,0.33379877,11201531114,0.007941248,-0.015271631,0.00061086525,11201531114,49.695312
11201539962,-0.96430755,-9.865608,0.3290131,11201539962,0.0067195175,-0.016493361,0.00061086525,11201539962,49.710938
11201548824,-0.96430755,-9.865608,0.3361916,11201548824,0.007330383,-0.016493361,0.00061086525,11201548824,49.710938
11201557667,-0.9523434,-9.869197,0.3361916,11201557667,0.007330383,-0.016493361,0.0012217305,11201557667,49.734375
11201566515,-0.96789676,-9.868001,0.3385844,11201566515,0.007941248,-0.016493361,0.0018325958,11201566515,49.734375
11201575360,-0.9619147,-9.860822,0.32183465,11201575360,0.0061086523,-0.017104227,0.0012217305,11201575360,49.710938
11201584216,-0.9595219,-9.864411,0.33020952,11201584216,0.008552114,-0.017715093,0,11201584216,49.710938
11201593045,-0.94277215,-9.862019,0.32662028,11201593045,0.0067195175,-0.016493361,0.00061086525,11201593045,49.6875
11201601898,-0.9619147,-9.864411,0.3361916,11201601898,0.007941248,-0.017104227,0,11201601898,49.6875
11201610762,-0.96789676,-9.865608,0.32183465,11201610762,0.009773844,-0.017715093,0.00061086525,11201610762,49.66797
11201619602,-0.9595219,-9.864411,0.33499518,11201619602,0.007330383,-0.017104227,0.00061086525,11201619602,49.66797
11201628460,-0.96430755,-9.865608,0.3278167,11201628460,0.0067195175,-0.017715093,0.00061086525,11201628460,49.67578
11201637304,-0.9667004,-9.868001,0.34217364,11201637304,0.0067195175,-0.017715093,0.00061086525,11201637304,49.67578
11201646136,-0.94755775,-9.856036,0.31465617,11201646136,0.007330383,-0.017104227,0.0012217305,11201646136,49.710938
11201654985,-0.94277215,-9.85484,0.31345975,11201654985,0.0067195175,-0.016493361,0.00061086525,11201654985,49.710938
11201663832,-0.9499506,-9.869197,0.32303107,11201663832,0.0061086523,-0.016493361,0.0018325958,11201663832,49.71875
11201672698,-0.9595219,-9.875179,0.32183465,11201672698,0.007941248,-0.016493361,0.0018325958,11201672698,49.71875
11201681536,-0.9619147,-9.865608,0.31944183,11201681536,0.007941248,-0.018325957,0.0012217305,11201681536,49.695312
11201690400,-0.971486,-9.866804,0.31345975,11201690400,0.007330383,-0.018936822,0.0012217305,11201690400,49.695312
11201699242,-0.9559326,-9.8632145,0.31585258,11201699242,0.007941248,-0.017715093,0.0012217305,11201699242,49.710938
11201708088,-0.95832545,-9.862019,0.32662028,11201708088,0.007941248,-0.017715093,0.0012217305,11201708088,49.710938
11201716931,-0.9667004,-9.864411,0.32303107,11201716931,0.0061086523,-0.017104227,0.00061086525,11201716931,49.710938
11201725776,-0.9631111,-9.866804,0.32183465,11201725776,0.0061086523,-0.017715093,0.0012217305,11201725776,49.710938
11201734621,-0.95712906,-9.8632145,0.30029923,11201734621,0.008552114,-0.014660766,0.00061086525,11201734621,49.703125
11201743482,-0.9499506,-9.865608,0.31226337,11201743482,0.0061086523,-0.015882496,0.0018325958,11201743482,49.703125
11201752320,-0.9631111,-9.864411,0.32542387,11201752320,0.007330383,-0.015882496,0.0012217305,11201752320,49.710938
11201761179,-0.96550393,-9.862019,0.31226337,11201761179,0.007330383,-0.016493361,0.0012217305,11201761179,49.710938
11201770039,-0.95353985,-9.868001,0.31345975,11201770039,0.0061086523,-0.015882496,0.0012217305,11201770039,49.6875
11201778887,-0.96430755,-9.866804,0.3182454,11201778887,0.0067195175,-0.016493361,0.0018325958,11201778887,49.6875
11201787731,-0.9631111,-9.8632145,0.32422748,11201787731,0.007941248,-0.016493361,0.00061086525,11201787731,49.6875
11201796578,-0.9595219,-9.8632145,0.31345975,11201796578,0.009162978,-0.017104227,0.0012217305,11201796578,49.6875
11201805425,-0.9631111,-9.864411,0.30987054,11201805425,0.008552114,-0.017104227,0.0012217305,11201805425,49.710938
11201814264,-0.9595219,-9.8727865,0.32063824,11201814264,0.009162978,-0.016493361,0.0012217305,11201814264,49.710938
11201823128,-0.9607183,-9.868001,0.317049,11201823128,0.005497787,-0.015882496,0.0012217305,11201823128,49.695312
11201831978,-0.9595219,-9.868001,0.31465617,11201831978,0.005497787,-0.017104227,0.0012217305,11201831978,49.695312
11201840825,-0.9523434,-9.868001,0.32063824,11201840825,0.0061086523,-0.017104227,0.00061086525,11201840825,49.67578
11201849664,-0.951147,-9.860822,0.33020952,11201849664,0.0061086523,-0.015882496,0.0012217305,11201849664,49.67578
11201858504,-0.9607183,-9.858429,0.32662028,11201858504,0.008552114,-0.016493361,0.00061086525,11201858504,49.726562
11201867348,-0.9619147,-9.875179,0.32542387,11201867348,0.008552114,-0.016493361,0.0012217305,11201867348,49.726562
11201876208,-0.96550393,-9.8632145,0.31345975,11201876208,0.008552114,-0.017104227,0.0012217305,11201876208,49.726562
11201885058,-0.95473623,-9.850055,0.31465617,11201885058,0.008552114,-0.016493361,0.0012217305,11201885058,49.726562
11201893901,-0.9595219,-9.865608,0.317049,11201893901,0.007330383,-0.015882496,0.0018325958,11201893901,49.710938
11201902761,-0.9619147,-9.868001,0.317049,11201902761,0.0067195175,-0.015271631,0.0012217305,11201902761,49.710938
11201911613,-0.9499506,-9.869197,0.32063824,11201911613,0.0067195175,-0.015882496,0.00061086525,11201911613,49.6875
11201920457,-0.95473623,-9.862019,0.31944183,11201920457,0.0067195175,-0.016493361,0.0012217305,11201920457,49.6875
11201929294,-0.9559326,-9.866804,0.31585258,11201929294,0.0067195175,-0.015271631,0.00061086525,11201929294,49.67578
11201938154,-0.96550393,-9.857233,0.32542387,11201938154,0.007941248,-0.016493361,0.0012217305,11201938154,49.67578
11201946997,-0.9607183,-9.8632145,0.33738798,11201946997,0.0061086523,-0.016493361,0.0018325958,11201946997,49.6875
11201955858,-0.9667004,-9.8727865,0.32183465,11201955858,0.008552114,-0.017104227,0.00061086525,11201955858,49.6875
11201964705,-0.9631111,-9.868001,0.32303107,11201964705,0.007330383,-0.017715093,0.0018325958,11201964705,49.66797
11201973540,-0.9523434,-9.868001,0.3290131,11201973540,0.0067195175,-0.017104227,0.0012217305,11201973540,49.66797
11201982404,-0.9523434,-9.865608,0.33260235,11201982404,0.007330383,-0.015882496,0.00061086525,11201982404,49.652344
11201991244,-0.9559326,-9.878768,0.33260235,11201991244,0.008552114,-0.016493361,0.0018325958,11201991244,49.652344
11202000094,-0.9523434,-9.865608,0.3397808,11202000094,0.0067195175,-0.015882496,0.0012217305,11202000094,49.660156
11202008947,-0.9595219,-9.8632145,0.32303107,11202008947,0.0067195175,-0.017104227,0.0018325958,11202008947,49.660156
11202017790,-0.96789676,-9.868001,0.3361916,11202017790,0.007941248,-0.017715093,0.0018325958,11202017790,49.695312
11202026646,-0.95832545,-9.866804,0.31944183,11202026646,0.0067195175,-0.017715093,0.0012217305,11202026646,49.695312
11202035491,-0.9499506,-9.868001,0.31465617,11202035491,0.005497787,-0.017104227,0,11202035491,49.6875
11202044327,-0.9631111,-9.873982,0.3361916,11202044327,0.007941248,-0.016493361,0.0012217305,11202044327,49.6875
11202053189,-0.9631111,-9.8727865,0.32303107,11202053189,0.007330383,-0.015271631,0.0012217305,11202053189,49.6875
11202062038,-0.9607183,-9.865608,0.3182454,11202062038,0.007330383,-0.015271631,0.0012217305,11202062038,49.6875
11202070891,-0.96789676,-9.864411,0.33379877,11202070891,0.007941248,-0.016493361,0.0018325958,11202070891,49.6875
11202079739,-0.9667004,-9.873982,0.32422748,11202079739,0.007330383,-0.017104227,0.0012217305,11202079739,49.6875
11202088582,-0.96789676,-9.868001,0.32422748,11202088582,0.0061086523,-0.018325957,0.0012217305,11202088582,49.710938
11202097426,-0.95832545,-9.862019,0.3182454,11202097426,0.007330383,-0.017104227,0.0012217305,11202097426,49.710938
11202106286,-0.9631111,-9.859626,0.31106696,11202106286,0.007941248,-0.016493361,0.0012217305,11202106286,49.703125
11202115117,-0.95353985,-9.865608,0.3278167,11202115117,0.007330383,-0.017104227,0.00061086525,11202115117,49.703125
11202123976,-0.9595219,-9.8727865,0.3182454,11202123976,0.0067195175,-0.016493361,0.0012217305,11202123976,49.6875
11202132820,-0.971486,-9.864411,0.31944183,11202132820,0.0061086523,-0.016493361,0.00061086525,11202132820,49.6875
11202141674,-0.9667004,-9.866804,0.32542387,11202141674,0.007941248,-0.016493361,0.0018325958,11202141674,49.71875
11202150523,-0.9559326,-9.865608,0.33499518,11202150523,0.005497787,-0.015271631,0.00061086525,11202150523,49.71875
11202159358,-0.95712906,-9.868001,0.32063824,11202159358,0.007330383,-0.015882496,0.00061086525,11202159358,49.710938
11202168214,-0.95353985,-9.864411,0.32542387,11202168214,0.007330383,-0.017715093,0.00061086525,11202168214,49.710938
11202177057,-0.9595219,-9.85484,0.32303107,11202177057,0.0067195175,-0.016493361,0.0012217305,11202177057,49.726562
11202185914,-0.9738788,-9.87159,0.31345975,11202185914,0.007941248,-0.016493361,0.0012217305,11202185914,49.726562
11202194752,-0.95832545,-9.8632145,0.32662028,11202194752,0.008552114,-0.018936822,0.0012217305,11202194752,49.695312
11202203610,-0.9619147,-9.869197,0.3290131,11202203610,0.0067195175,-0.016493361,0.00061086525,11202203610,49.695312
11202212471,-0.9607183,-9.8727865,0.32542387,11202212471,0.005497787,-0.016493361,0.00061086525,11202212471,49.71875
11202221303,-0.9595219,-9.875179,0.32662028,11202221303,0.007941248,-0.017715093,0.0018325958,11202221303,49.71875
11202230147,-0.9726824,-9.862019,0.31585258,11202230147,0.0067195175,-0.017715093,0.0012217305,11202230147,49.734375
11202239005,-0.9667004,-9.860822,0.32183465,11202239005,0.007941248,-0.018936822,0.0012217305,11202239005,49.734375
11202256701,-0.95473623,-9.850055,0.31465617,11202256701,0.0061086523,-0.018325957,0.00061086525,11202256701,49.734375
11202265540,-0.95353985,-9.868001,0.30867413,11202265540,0.0067195175,-0.017104227,0.00061086525,11202265540,49.710938
11202274410,-0.9559326,-9.864411,0.3074777,11202274410,0.0067195175,-0.017715093,0.0012217305,11202274410,49.710938
11202283250,-0.9607183,-9.857233,0.2943172,11202283250,0.007941248,-0.017104227,0.0012217305,11202283250,49.710938
11202292094,-0.9559326,-9.864411,0.31585258,11202292094,0.007941248,-0.016493361,0.0012217305,11202292094,49.710938
11202300947,-0.9487542,-9.87159,0.32303107,11202300947,0.007330383,-0.017104227,0.0018325958,11202300947,49.695312
11202309804,-0.9595219,-9.870394,0.33260235,11202309804,0.007941248,-0.017104227,0.0012217305,11202309804,49.695312
11202318655,-0.9595219,-9.864411,0.32183465,11202318655,0.008552114,-0.015271631,0.0012217305,11202318655,49.710938
11202327499,-0.96789676,-9.864411,0.31465617,11202327499,0.007941248,-0.016493361,0.0012217305,11202327499,49.710938
11202336340,-0.95712906,-9.873982,0.31585258,11202336340,0.0067195175,-0.018936822,0.0012217305,11202336340,49.6875
11202345190,-0.9619147,-9.864411,0.31944183,11202345190,0.0067195175,-0.017104227,0,11202345190,49.6875
11202354037,-0.9559326,-9.866804,0.3182454,11202354037,0.005497787,-0.016493361,0.0012217305,11202354037,49.703125
11202362895,-0.9619147,-9.864411,0.32183465,11202362895,0.007330383,-0.015882496,0.00061086525,11202362895,49.703125
11202371746,-0.96909314,-9.8632145,0.33379877,11202371746,0.007330383,-0.014660766,0.00061086525,11202371746,49.66797
11202380592,-0.9595219,-9.858429,0.33260235,11202380592,0.007941248,-0.015882496,0.00061086525,11202380592,49.66797
11202389433,-0.96550393,-9.866804,0.3361916,11202389433,0.007941248,-0.017104227,0.00061086525,11202389433,49.67578
11202398287,-0.95353985,-9.856036,0.33020952,11202398287,0.007330383,-0.016493361,0.00061086525,11202398287,49.67578
11202407131,-0.95473623,-9.864411,0.31944183,11202407131,0.0067195175,-0.017715093,0,11202407131,49.67578
11202415988,-0.9667004,-9.858429,0.33020952,11202415988,0.0067195175,-0.016493361,0.0012217305,11202415988,49.67578
11202424815,-0.95832545,-9.873982,0.31585258,11202424815,0.0067195175,-0.015271631,0.00061086525,11202424815,49.6875
11202433670,-0.9631111,-9.865608,0.317049,11202433670,0.007330383,-0.015271631,0.0012217305,11202433670,49.6875
11202442514,-0.9619147,-9.865608,0.32063824,11202442514,0.008552114,-0.015882496,0.0012217305,11202442514,49.67578
11202451379,-0.9595219,-9.8632145,0.33499518,11202451379,0.007941248,-0.016493361,0.00061086525,11202451379,49.67578
11202460229,-0.9667004,-9.870394,0.33020952,11202460229,0.0061086523,-0.015271631,0.0018325958,11202460229,49.726562
11202469071,-0.96789676,-9.857233,0.34097722,11202469071,0.0061086523,-0.016493361,0.0018325958,11202469071,49.726562
11202478005,-0.96430755,-9.869197,0.32303107,11202478005,0.0067195175,-0.017104227,0.0012217305,11202478005,49.695312
11202486757,-0.9523434,-9.862019,0.3062813,11202486757,0.0067195175,-0.017715093,0.0018325958,11202486757,49.695312
11202495622,-0.9487542,-9.860822,0.31465617,11202495622,0.007330383,-0.017715093,0.0012217305,11202495622,49.710938
11202504462,-0.95473623,-9.868001,0.32063824,11202504462,0.007330383,-0.016493361,0.0012217305,11202504462,49.710938
11202513312,-0.96430755,-9.8632145,0.31944183,11202513312,0.008552114,-0.015271631,0.0012217305,11202513312,49.710938
11202522161,-0.9631111,-9.860822,0.33020952,11202522161,0.0067195175,-0.015882496,0.00061086525,11202522161,49.710938
11202531020,-0.95832545,-9.862019,0.32303107,11202531020,0.007330383,-0.017104227,0.0012217305,11202531020,49.710938
11202539869,-0.9595219,-9.8632145,0.33499518,11202539869,0.0067195175,-0.016493361,0.0012217305,11202539869,49.710938
11202548714,-0.95712906,-9.865608,0.31465617,11202548714,0.005497787,-0.016493361,0.00061086525,11202548714,49.652344
11202557558,-0.9667004,-9.866804,0.32662028,11202557558,0.0067195175,-0.015882496,0.00061086525,11202557558,49.652344
11202566405,-0.96909314,-9.869197,0.32662028,11202566405,0.007941248,-0.017104227,0.0012217305,11202566405,49.6875
11202575250,-0.95353985,-9.87159,0.32662028,11202575250,0.007330383,-0.017715093,0.0012217305,11202575250,49.6875
11202584102,-0.951147,-9.866804,0.32542387,11202584102,0.0067195175,-0.018325957,0.0012217305,11202584102,49.710938
11202592942,-0.96430755,-9.862019,0.32183465,11202592942,0.007941248,-0.017104227,0.0012217305,11202592942,49.710938
11202601805,-0.9667004,-9.866804,0.32422748,11202601805,0.007330383,-0.017715093,0.0018325958,11202601805,49.6875
11202610643,-0.9631111,-9.862019,0.32063824,11202610643,0.007941248,-0.017104227,0.00061086525,11202610643,49.6875
11202619496,-0.9523434,-9.8632145,0.32542387,11202619496,0.007330383,-0.015882496,0.00061086525,11202619496,49.695312
11202628349,-0.94755775,-9.858429,0.32662028,11202628349,0.007330383,-0.017104227,0.0012217305,11202628349,49.695312
11202637193,-0.95353985,-9.8632145,0.33020952,11202637193,0.0061086523,-0.016493361,0.0018325958,11202637193,49.695312
11202646053,-0.9702896,-9.864411,0.31106696,11202646053,0.0067195175,-0.018325957,0.0012217305,11202646053,49.695312
11202654885,-0.96550393,-9.862019,0.31465617,11202654885,0.0067195175,-0.017715093,0.00061086525,11202654885,49.726562
11202663737,-0.95832545,-9.865608,0.3182454,11202663737,0.007941248,-0.016493361,0.00061086525,11202663737,49.726562
11202672593,-0.95712906,-9.87159,0.31345975,11202672593,0.007941248,-0.016493361,0.0012217305,11202672593,49.652344
11202681447,-0.9559326,-9.866804,0.31345975,11202681447,0.0067195175,-0.017104227,0.0012217305,11202681447,49.652344
11202690283,-0.9595219,-9.865608,0.31944183,11202690283,0.007941248,-0.015882496,0.00061086525,11202690283,49.695312
11202699147,-0.9607183,-9.868001,0.31944183,11202699147,0.0061086523,-0.015882496,0,11202699147,49.695312
11202707991,-0.96789676,-9.8727865,0.3182454,11202707991,0.0067195175,-0.017104227,0.00061086525,11202707991,49.726562
11202716841,-0.96550393,-9.864411,0.31585258,11202716841,0.0067195175,-0.016493361,0,11202716841,49.726562
11202725690,-0.9559326,-9.868001,0.30508488,11202725690,0.0061086523,-0.015882496,0.00061086525,11202725690,49.66797
11202734534,-0.9607183,-9.864411,0.31465617,11202734534,0.0061086523,-0.016493361,0.0012217305,11202734534,49.66797
11202743391,-0.95832545,-9.8632145,0.31345975,11202743391,0.007330383,-0.016493361,0.00061086525,11202743391,49.66797
11202752219,-0.96430755,-9.870394,0.31465617,11202752219,0.007941248,-0.014660766,0.0018325958,11202752219,49.66797
11202761081,-0.9559326,-9.8632145,0.31585258,11202761081,0.005497787,-0.015882496,0.0012217305,11202761081,49.66797
11202769935,-0.96789676,-9.862019,0.32303107,11202769935,0.0067195175,-0.017715093,0.0018325958,11202769935,49.66797
11202778761,-0.96550393,-9.864411,0.32542387,11202778761,0.007330383,-0.015882496,0.0018325958,11202778761,49.734375
11202787605,-0.9631111,-9.8727865,0.3182454,11202787605,0.0067195175,-0.015271631,0.0018325958,11202787605,49.734375
11202796466,-0.95712906,-9.858429,0.3278167,11202796466,0.0061086523,-0.015882496,0.0012217305,11202796466,49.703125
11202805312,-0.9702896,-9.865608,0.32542387,11202805312,0.0067195175,-0.017104227,0.0018325958,11202805312,49.703125
11202814171,-0.9595219,-9.858429,0.31585258,11202814171,0.007330383,-0.017104227,0.0012217305,11202814171,49.703125
11202823023,-0.9667004,-9.8632145,0.3182454,11202823023,0.007941248,-0.015882496,0.0012217305,11202823023,49.703125
11202831874,-0.95353985,-9.865608,0.30867413,11202831874,0.0067195175,-0.015882496,0.00061086525,11202831874,49.67578
11202840722,-0.96909314,-9.865608,0.317049,11202840722,0.007941248,-0.017104227,0.0018325958,11202840722,49.67578
11202849556,-0.9607183,-9.860822,0.33738798,11202849556,0.007330383,-0.017104227,0.0012217305,11202849556,49.710938
11202858410,-0.95353985,-9.866804,0.33379877,11202858410,0.007330383,-0.017104227,0.0012217305,11202858410,49.710938
11202867254,-0.9619147,-9.870394,0.32422748,11202867254,0.007330383,-0.015882496,0,11202867254,49.710938
11202876119,-0.94636136,-9.865608,0.32303107,11202876119,0.007941248,-0.016493361,0,11202876119,49.710938
11202884960,-0.95473623,-9.868001,0.32183465,11202884960,0.007330383,-0.014660766,0,11202884960,49.695312
11202893797,-0.9619147,-9.8632145,0.31465617,11202893797,0.0061086523,-0.016493361,0.00061086525,11202893797,49.695312
11202902668,-0.95832545,-9.858429,0.31944183,11202902668,0.007941248,-0.016493361,0.00061086525,11202902668,49.67578
11202911513,-0.9619147,-9.862019,0.32422748,11202911513,0.008552114,-0.015271631,0.0018325958,11202911513,49.67578
11202920350,-0.95832545,-9.8632145,0.32662028,11202920350,0.007330383,-0.015882496,0.0012217305,11202920350,49.703125
11202929193,-0.9595219,-9.864411,0.3278167,11202929193,0.007941248,-0.015882496,0.00061086525,11202929193,49.703125
11202938046,-0.9595219,-9.860822,0.32662028,11202938046,0.0061086523,-0.015882496,0.00061086525,11202938046,49.6875
11202946889,-0.9619147,-9.8632145,0.32542387,11202946889,0.005497787,-0.017715093,0.00061086525,11202946889,49.6875
11202955754,-0.951147,-9.869197,0.3182454,11202955754,0.007330383,-0.017104227,0.0012217305,11202955754,49.66797
11202964591,-0.95712906,-9.860822,0.3278167,11202964591,0.007330383,-0.017104227,0.00061086525,11202964591,49.66797
11202973453,-0.9595219,-9.858429,0.33020952,11202973453,0.0067195175,-0.017104227,0.00061086525,11202973453,49.67578
11202982304,-0.95353985,-9.868001,0.32183465,11202982304,0.007330383,-0.017104227,0.00061086525,11202982304,49.67578
11202991154,-0.9607183,-9.8632145,0.33738798,11202991154,0.007330383,-0.016493361,0.00061086525,11202991154,49.64453
11202999998,-0.9499506,-9.857233,0.33260235,11202999998,0.007330383,-0.017104227,0.0012217305,11202999998,49.64453
11203008838,-0.9559326,-9.868001,0.34097722,11203008838,0.0067195175,-0.016493361,0.0012217305,11203008838,49.703125
11203017682,-0.9726824,-9.857233,0.33020952,11203017682,0.007330383,-0.016493361,0.00061086525,11203017682,49.703125
11203026539,-0.9774681,-9.869197,0.31944183,11203026539,0.007330383,-0.018325957,0.0012217305,11203026539,49.67578
11203035385,-0.95353985,-9.873982,0.3278167,11203035385,0.0067195175,-0.017104227,0.00061086525,11203035385,49.67578
11203044231,-0.95353985,-9.866804,0.32422748,11203044231,0.0061086523,-0.015882496,0.0012217305,11203044231,49.6875
11203053085,-0.9619147,-9.869197,0.34097722,11203053085,0.007330383,-0.015882496,0.0012217305,11203053085,49.6875
11203061926,-0.9631111,-9.860822,0.33379877,11203061926,0.007330383,-0.016493361,0.0012217305,11203061926,49.71875
11203070784,-0.9702896,-9.860822,0.32662028,11203070784,0.007941248,-0.017104227,0.0012217305,11203070784,49.71875
11203079629,-0.95832545,-9.85484,0.33020952,11203079629,0.007330383,-0.017715093,0.002443461,11203079629,49.6875
11203088483,-0.9595219,-9.859626,0.33260235,11203088483,0.009162978,-0.018936822,0.0018325958,11203088483,49.6875
11203097327,-0.9559326,-9.858429,0.32662028,11203097327,0.008552114,-0.018325957,0.0012217305,11203097327,49.66797
11203106175,-0.96430755,-9.862019,0.317049,11203106175,0.007330383,-0.017715093,0.0018325958,11203106175,49.66797
11203115029,-0.9667004,-9.869197,0.31106696,11203115029,0.0067195175,-0.018325957,0.00061086525,11203115029,49.67578
11203123873,-0.9595219,-9.8632145,0.317049,11203123873,0.0067195175,-0.017715093,0.00061086525,11203123873,49.67578
11203132725,-0.9667004,-9.8632145,0.3182454,11203132725,0.0067195175,-0.017715093,0.0012217305,11203132725,49.652344
11203141581,-0.96550393,-9.860822,0.33738798,11203141581,0.0061086523,-0.017104227,0.00061086525,11203141581,49.652344
11203150425,-0.9619147,-9.859626,0.34097722,11203150425,0.0067195175,-0.017104227,0.0018325958,11203150425,49.695312
11203159276,-0.96550393,-9.866804,0.33379877,11203159276,0.0061086523,-0.017104227,0.00061086525,11203159276,49.695312
11203168116,-0.95832545,-9.869197,0.32303107,11203168116,0.007330383,-0.017715093,0.0012217305,11203168116,49.695312
11203176959,-0.95832545,-9.860822,0.32183465,11203176959,0.007330383,-0.015882496,0.0012217305,11203176959,49.695312
11203185816,-0.9499506,-9.865608,0.3074777,11203185816,0.008552114,-0.017715093,0,11203185816,49.6875
11203194653,-0.95832545,-9.868001,0.31345975,11203194653,0.008552114,-0.017104227,0.0012217305,11203194653,49.6875
11203203512,-0.971486,-9.866804,0.32542387,11203203512,0.007330383,-0.015882496,0.0012217305,11203203512,49.695312
11203212353,-0.96550393,-9.864411,0.3278167,11203212353,0.009162978,-0.017104227,0.00061086525,11203212353,49.695312
11203221209,-0.96550393,-9.868001,0.33379877,11203221209,0.007330383,-0.016493361,0.00061086525,11203221209,49.64453
11203230068,-0.9595219,-9.864411,0.31585258,11203230068,0.0067195175,-0.018325957,-0.00061086525,11203230068,49.64453
11203238910,-0.96550393,-9.857233,0.32303107,11203238910,0.007941248,-0.017104227,0.00061086525,11203238910,49.710938
11203247754,-0.95832545,-9.866804,0.31465617,11203247754,0.008552114,-0.017104227,0.00061086525,11203247754,49.710938
11203256595,-0.9499506,-9.859626,0.30867413,11203256595,0.009162978,-0.015882496,0.00061086525,11203256595,49.67578
11203265450,-0.9607183,-9.865608,0.30508488,11203265450,0.007330383,-0.015882496,0.0012217305,11203265450,49.67578
11203274301,-0.95832545,-9.865608,0.30149564,11203274301,0.007941248,-0.016493361,0.00061086525,11203274301,49.710938
11203283151,-0.95712906,-9.8632145,0.31465617,11203283151,0.007330383,-0.018325957,0.00061086525,11203283151,49.710938
11203292004,-0.9619147,-9.857233,0.33020952,11203292004,0.008552114,-0.017104227,0.0012217305,11203292004,49.703125
11203300847,-0.9667004,-9.8632145,0.31345975,11203300847,0.0067195175,-0.015271631,0.00061086525,11203300847,49.703125
11203309707,-0.9607183,-9.865608,0.32303107,11203309707,0.0067195175,-0.015271631,0.00061086525,11203309707,49.71875
11203318546,-0.9607183,-9.866804,0.30987054,11203318546,0.007941248,-0.017104227,0.0012217305,11203318546,49.71875
11203327390,-0.9559326,-9.866804,0.31106696,11203327390,0.007330383,-0.017104227,0.0012217305,11203327390,49.703125
11203336232,-0.951147,-9.860822,0.31345975,11203336232,0.007330383,-0.015882496,0.00061086525,11203336232,49.703125
11203345098,-0.96430755,-9.860822,0.31465617,11203345098,0.007941248,-0.017715093,0.0012217305,11203345098,49.710938
11203353933,-0.96550393,-9.864411,0.31465617,11203353933,0.008552114,-0.016493361,0.0012217305,11203353933,49.710938
11203362795,-0.95832545,-9.864411,0.32183465,11203362795,0.009162978,-0.015271631,0.0012217305,11203362795,49.695312
11203371626,-0.95712906,-9.860822,0.33379877,11203371626,0.008552114,-0.014660766,0.00061086525,11203371626,49.695312
11203380493,-0.9487542,-9.8632145,0.33738798,11203380493,0.007330383,-0.015882496,0.0012217305,11203380493,49.695312
11203389332,-0.96550393,-9.860822,0.3290131,11203389332,0.007330383,-0.014660766,0.0012217305,11203389332,49.695312
11203398183,-0.96550393,-9.868001,0.34097722,11203398183,0.007330383,-0.016493361,0.0012217305,11203398183,49.695312
11203407026,-0.9619147,-9.866804,0.33379877,11203407026,0.007330383,-0.016493361,0.0012217305,11203407026,49.695312
11203415867,-0.9559326,-9.862019,0.32422748,11203415867,0.008552114,-0.016493361,0.00061086525,11203415867,49.710938
11203424737,-0.9607183,-9.864411,0.31465617,11203424737,0.007330383,-0.017715093,0.00061086525,11203424737,49.710938
11203433564,-0.9631111,-9.866804,0.32422748,11203433564,0.0067195175,-0.016493361,0.0012217305,11203433564,49.695312
11203442415,-0.95353985,-9.869197,0.3361916,11203442415,0.0067195175,-0.015271631,0.002443461,11203442415,49.695312
11203451279,-0.96430755,-9.868001,0.3278167,11203451279,0.0067195175,-0.015882496,0.0012217305,11203451279,49.66797
11203460130,-0.9607183,-9.860822,0.3397808,11203460130,0.007330383,-0.017104227,0.0012217305,11203460130,49.66797
11203468977,-0.96789676,-9.853643,0.33140594,11203468977,0.007330383,-0.018325957,0.0018325958,11203468977,49.6875
11203477820,-0.96789676,-9.869197,0.3290131,11203477820,0.007330383,-0.017104227,0.00061086525,11203477820,49.6875
11203486671,-0.9595219,-9.862019,0.3397808,11203486671,0.0067195175,-0.016493361,0.00061086525,11203486671,49.6875
11203495524,-0.96430755,-9.864411,0.33020952,11203495524,0.007330383,-0.017104227,0.0012217305,11203495524,49.6875
11203504369,-0.95473623,-9.8632145,0.31944183,11203504369,0.0061086523,-0.018325957,0.00061086525,11203504369,49.64453
11203513206,-0.9451649,-9.869197,0.32542387,11203513206,0.005497787,-0.017104227,0,11203513206,49.64453
11203522060,-0.9523434,-9.876375,0.32542387,11203522060,0.007941248,-0.017715093,0.0012217305,11203522060,49.695312
11203530919,-0.9559326,-9.868001,0.33379877,11203530919,0.007941248,-0.016493361,0.0012217305,11203530919,49.695312
11203539767,-0.9607183,-9.862019,0.33738798,11203539767,0.0061086523,-0.015271631,0.0012217305,11203539767,49.703125
11203548615,-0.95832545,-9.865608,0.33499518,11203548615,0.0067195175,-0.016493361,0.00061086525,11203548615,49.703125
11203557459,-0.9619147,-9.8632145,0.3278167,11203557459,0.007330383,-0.017715093,0.00061086525,11203557459,49.6875
11203566304,-0.95353985,-9.857233,0.3182454,11203566304,0.0061086523,-0.017715093,0.0012217305,11203566304,49.6875
11203575156,-0.9607183,-9.857233,0.3278167,11203575156,0.007330383,-0.017104227,0.00061086525,11203575156,49.66797
11203583990,-0.95832545,-9.878768,0.32063824,11203583990,0.007330383,-0.017715093,0.0018325958,11203583990,49.66797
11203592856,-0.971486,-9.87159,0.3278167,11203592856,0.007330383,-0.016493361,0.0012217305,11203592856,49.66797
11203601691,-0.9702896,-9.866804,0.32303107,11203601691,0.0061086523,-0.015882496,0.0012217305,11203601691,49.66797
11203610558,-0.95832545,-9.864411,0.33379877,11203610558,0.005497787,-0.017104227,0.00061086525,11203610558,49.71875
11203619410,-0.95473623,-9.858429,0.33738798,11203619410,0.0067195175,-0.016493361,0.0012217305,11203619410,49.71875
11203628242,-0.95832545,-9.862019,0.3278167,11203628242,0.0061086523,-0.017104227,0.00061086525,11203628242,49.6875
11203637086,-0.9595219,-9.859626,0.3182454,11203637086,0.005497787,-0.017104227,0.0012217305,11203637086,49.6875
11203645932,-0.9667004,-9.862019,0.31585258,11203645932,0.0061086523,-0.017104227,0.0018325958,11203645932,49.710938
11203654792,-0.96430755,-9.8632145,0.30149564,11203654792,0.0067195175,-0.016493361,0.0012217305,11203654792,49.710938
11203663642,-0.9619147,-9.868001,0.32303107,11203663642,0.0067195175,-0.017715093,0.0012217305,11203663642,49.6875
11203672493,-0.95712906,-9.865608,0.3062813,11203672493,0.005497787,-0.017104227,0.00061086525,11203672493,49.6875
11203681338,-0.9559326,-9.865608,0.317049,11203681338,0.0061086523,-0.016493361,0,11203681338,49.703125
11203690180,-0.95832545,-9.8632145,0.33020952,11203690180,0.007941248,-0.016493361,0.0012217305,11203690180,49.703125
11203699043,-0.9499506,-9.859626,0.3182454,11203699043,0.007330383,-0.017104227,0.00061086525,11203699043,49.695312
11203707887,-0.96550393,-9.8632145,0.32063824,11203707887,0.008552114,-0.017715093,0.0018325958,11203707887,49.695312
11203716730,-0.9607183,-9.864411,0.31345975,11203716730,0.007330383,-0.017715093,0.0012217305,11203716730,49.652344
11203725571,-0.9631111,-9.860822,0.3062813,11203725571,0.0067195175,-0.017104227,0.0012217305,11203725571,49.652344
11203734425,-0.9631111,-9.866804,0.30867413,11203734425,0.007941248,-0.016493361,0.0012217305,11203734425,49.67578
11203743275,-0.95712906,-9.857233,0.30388847,11203743275,0.008552114,-0.017104227,0.0012217305,11203743275,49.67578
11203752122,-0.95712906,-9.860822,0.31465617,11203752122,0.008552114,-0.018325957,0.0012217305,11203752122,49.703125
11203760987,-0.9523434,-9.862019,0.32063824,11203760987,0.007330383,-0.015882496,0.0018325958,11203760987,49.703125
11203769834,-0.95473623,-9.860822,0.31585258,11203769834,0.007330383,-0.016493361,0.00061086525,11203769834,49.703125
11203778665,-0.9595219,-9.859626,0.33140594,11203778665,0.007330383,-0.015882496,0.00061086525,11203778665,49.703125
11203787509,-0.95712906,-9.862019,0.317049,11203787509,0.0061086523,-0.015882496,0.0012217305,11203787509,49.695312
11203796366,-0.9619147,-9.864411,0.32542387,11203796366,0.0067195175,-0.015882496,0.0012217305,11203796366,49.695312
11203805228,-0.95353985,-9.864411,0.32303107,11203805228,0.0067195175,-0.016493361,0.0012217305,11203805228,49.6875
11203814062,-0.9702896,-9.862019,0.31585258,11203814062,0.0067195175,-0.016493361,0.0012217305,11203814062,49.6875
11203822909,-0.9595219,-9.869197,0.31585258,11203822909,0.007330383,-0.015882496,0.00061086525,11203822909,49.67578
11203831776,-0.96550393,-9.8632145,0.32542387,11203831776,0.007330383,-0.015882496,0.0012217305,11203831776,49.67578
11203840604,-0.9607183,-9.868001,0.33379877,11203840604,0.007330383,-0.016493361,0.0012217305,11203840604,49.66797
11203849461,-0.96430755,-9.866804,0.33260235,11203849461,0.007941248,-0.016493361,0.0012217305,11203849461,49.66797
11203858304,-0.9667004,-9.870394,0.32542387,11203858304,0.007941248,-0.017104227,0.0018325958,11203858304,49.710938
11203867148,-0.97507524,-9.870394,0.3290131,11203867148,0.005497787,-0.016493361,0.00061086525,11203867148,49.710938
11203876005,-0.9619147,-9.877572,0.32662028,11203876005,0.007330383,-0.016493361,0.00061086525,11203876005,49.67578
11203884857,-0.95712906,-9.870394,0.31944183,11203884857,0.005497787,-0.017104227,0.00061086525,11203884857,49.67578
11203893689,-0.95832545,-9.868001,0.3182454,11203893689,0.0067195175,-0.017104227,0.0018325958,11203893689,49.695312
11203902559,-0.96789676,-9.859626,0.3278167,11203902559,0.0067195175,-0.017104227,0.0012217305,11203902559,49.695312
11203911404,-0.96909314,-9.860822,0.32422748,11203911404,0.007330383,-0.016493361,0.0012217305,11203911404,49.71875
11203920256,-0.9559326,-9.862019,0.33260235,11203920256,0.007941248,-0.016493361,0.0018325958,11203920256,49.71875
11203929101,-0.9619147,-9.8632145,0.3361916,11203929101,0.0061086523,-0.016493361,0.0018325958,11203929101,49.710938
11203937945,-0.95712906,-9.868001,0.32422748,11203937945,0.007330383,-0.017104227,0.0018325958,11203937945,49.710938
11203946802,-0.9499506,-9.85484,0.32662028,11203946802,0.0061086523,-0.016493361,0.0018325958,11203946802,49.660156
11203955647,-0.96550393,-9.859626,0.32303107,11203955647,0.0061086523,-0.016493361,0.0012217305,11203955647,49.660156
11203964494,-0.95832545,-9.865608,0.32303107,11203964494,0.008552114,-0.016493361,0.0012217305,11203964494,49.695312
11203973342,-0.96789676,-9.862019,0.3278167,11203973342,0.007330383,-0.017104227,0.0018325958,11203973342,49.695312
11203982187,-0.9607183,-9.868001,0.32422748,11203982187,0.005497787,-0.016493361,0.0012217305,11203982187,49.703125
11203991052,-0.9499506,-9.869197,0.3290131,11203991052,0.0061086523,-0.016493361,0.00061086525,11203991052,49.703125
11203999881,-0.9559326,-9.864411,0.33738798,11203999881,0.007941248,-0.015882496,0.0012217305,11203999881,49.66797
11204008740,-0.9619147,-9.864411,0.32662028,11204008740,0.0061086523,-0.016493361,0.00061086525,11204008740,49.66797
11204017584,-0.9631111,-9.868001,0.33499518,11204017584,0.007330383,-0.016493361,0.0012217305,11204017584,49.695312
11204026439,-0.95832545,-9.869197,0.32542387,11204026439,0.0061086523,-0.017715093,0.00061086525,11204026439,49.695312
11204035281,-0.95712906,-9.862019,0.32183465,11204035281,0.0061086523,-0.018325957,0.00061086525,11204035281,49.703125
11204044136,-0.9738788,-9.869197,0.31585258,11204044136,0.0067195175,-0.017104227,0.00061086525,11204044136,49.703125
11204052973,-0.96430755,-9.865608,0.32542387,11204052973,0.007330383,-0.017104227,0.0012217305,11204052973,49.66797
11204061838,-0.9595219,-9.864411,0.33140594,11204061838,0.0067195175,-0.016493361,0.00061086525,11204061838,49.66797
11204070675,-0.95473623,-9.8632145,0.33260235,11204070675,0.0061086523,-0.016493361,0.00061086525,11204070675,49.71875
11204079538,-0.9559326,-9.864411,0.33260235,11204079538,0.007330383,-0.018325957,0.0012217305,11204079538,49.71875
11204088391,-0.9523434,-9.862019,0.3290131,11204088391,0.007330383,-0.017715093,0.0018325958,11204088391,49.64453
11204097235,-0.9595219,-9.853643,0.3278167,11204097235,0.0067195175,-0.017104227,0.00061086525,11204097235,49.64453
11204106081,-0.96550393,-9.862019,0.31465617,11204106081,0.0067195175,-0.017104227,0.00061086525,11204106081,49.67578
11204114915,-0.96909314,-9.8632145,0.3074777,11204114915,0.007330383,-0.018936822,0.0012217305,11204114915,49.67578
11204123769,-0.9559326,-9.870394,0.31106696,11204123769,0.007941248,-0.015882496,0.0018325958,11204123769,49.64453
11204132627,-0.95353985,-9.865608,0.31585258,11204132627,0.0067195175,-0.015882496,0.0012217305,11204132627,49.64453
11204141477,-0.9631111,-9.8632145,0.317049,11204141477,0.0067195175,-0.016493361,0.0012217305,11204141477,49.695312
11204150321,-0.95473623,-9.864411,0.32303107,11204150321,0.007330383,-0.015271631,0.0018325958,11204150321,49.695312
11204159158,-0.96430755,-9.8632145,0.3290131,11204159158,0.0061086523,-0.015271631,0.0012217305,11204159158,49.66797
11204168048,-0.96430755,-9.8632145,0.32542387,11204168048,0.0067195175,-0.015882496,0.00061086525,11204168048,49.66797
11204176846,-0.95712906,-9.868001,0.3182454,11204176846,0.007330383,-0.015882496,0.0012217305,11204176846,49.660156
11204185710,-0.9451649,-9.868001,0.31465617,11204185710,0.008552114,-0.017104227,0.00061086525,11204185710,49.660156
11204194556,-0.95712906,-9.859626,0.30029923,11204194556,0.007330383,-0.015882496,0.00061086525,11204194556,49.6875
11204203419,-0.96789676,-9.866804,0.30987054,11204203419,0.009162978,-0.016493361,0.0012217305,11204203419,49.6875
11204212250,-0.951147,-9.864411,0.31345975,11204212250,0.007941248,-0.015882496,0.0012217305,11204212250,49.67578
11204221103,-0.9559326,-9.858429,0.32422748,11204221103,0.0061086523,-0.016493361,0.0012217305,11204221103,49.67578
11204229961,-0.9619147,-9.8632145,0.33140594,11204229961,0.007330383,-0.016493361,0.00061086525,11204229961,49.695312
11204238805,-0.9726824,-9.8632145,0.33260235,11204238805,0.007330383,-0.016493361,0.0012217305,11204238805,49.695312
11204247649,-0.95832545,-9.8632145,0.32303107,11204247649,0.007330383,-0.017715093,0.00061086525,11204247649,49.66797
11204256502,-0.9619147,-9.875179,0.32422748,11204256502,0.0067195175,-0.016493361,0.0012217305,11204256502,49.66797
11204265349,-0.94755775,-9.865608,0.31226337,11204265349,0.0061086523,-0.017104227,0.00061086525,11204265349,49.71875
11204274207,-0.9607183,-9.868001,0.32422748,11204274207,0.0067195175,-0.015882496,0,11204274207,49.71875
11204283053,-0.9619147,-9.862019,0.32183465,11204283053,0.007330383,-0.015271631,0.00061086525,11204283053,49.67578
11204291890,-0.9726824,-9.85484,0.30987054,11204291890,0.008552114,-0.016493361,0.00061086525,11204291890,49.67578
11204300750,-0.97507524,-9.860822,0.3397808,11204300750,0.007941248,-0.017104227,0.0012217305,11204300750,49.6875
11204309598,-0.96550393,-9.8632145,0.3385844,11204309598,0.007330383,-0.018325957,0.00061086525,11204309598,49.6875
11204318439,-0.9607183,-9.870394,0.33379877,11204318439,0.007330383,-0.016493361,0.0012217305,11204318439,49.652344
11204327283,-0.96550393,-9.866804,0.33020952,11204327283,0.007330383,-0.017715093,0.00061086525,11204327283,49.652344
11204336140,-0.9595219,-9.868001,0.32063824,11204336140,0.007330383,-0.017715093,0.00061086525,11204336140,49.660156
11204344976,-0.9619147,-9.860822,0.32542387,11204344976,0.0067195175,-0.016493361,0.0012217305,11204344976,49.660156
11204353836,-0.96430755,-9.870394,0.3278167,11204353836,0.007330383,-0.015882496,0.00061086525,11204353836,49.6875
11204362692,-0.96430755,-9.8632145,0.32303107,11204362692,0.007941248,-0.015271631,0.00061086525,11204362692,49.6875
11204371541,-0.9595219,-9.869197,0.33020952,11204371541,0.007330383,-0.014660766,0.0018325958,11204371541,49.67578
11204380382,-0.96550393,-9.870394,0.32542387,11204380382,0.0061086523,-0.015882496,0.0018325958,11204380382,49.67578
11204389225,-0.9667004,-9.860822,0.3278167,11204389225,0.0061086523,-0.016493361,0.0012217305,11204389225,49.652344
11204398087,-0.9559326,-9.859626,0.3182454,11204398087,0.0067195175,-0.017104227,0.0012217305,11204398087,49.652344
11204406930,-0.9667004,-9.850055,0.32422748,11204406930,0.007941248,-0.017715093,0.0012217305,11204406930,49.67578
11204415787,-0.9619147,-9.869197,0.3278167,11204415787,0.0067195175,-0.015271631,0.0018325958,11204415787,49.67578
11204424619,-0.9595219,-9.869197,0.32422748,11204424619,0.007330383,-0.015882496,0.00061086525,11204424619,49.6875
11204433472,-0.95832545,-9.860822,0.3278167,11204433472,0.0067195175,-0.016493361,0.00061086525,11204433472,49.6875
11204442317,-0.9607183,-9.859626,0.3397808,11204442317,0.008552114,-0.017715093,0.00061086525,11204442317,49.703125
11204451171,-0.96430755,-9.858429,0.33738798,11204451171,0.007330383,-0.017104227,0.00061086525,11204451171,49.703125
11204460022,-0.9595219,-9.866804,0.34456646,11204460022,0.007330383,-0.016493361,0.0012217305,11204460022,49.67578
11204468864,-0.9667004,-9.862019,0.3290131,11204468864,0.009162978,-0.017104227,0.00061086525,11204468864,49.67578
11204477707,-0.9726824,-9.860822,0.3290131,11204477707,0.007941248,-0.018325957,0.0012217305,11204477707,49.66797
11204486574,-0.9667004,-9.865608,0.32422748,11204486574,0.0067195175,-0.017715093,0.0012217305,11204486574,49.66797
11204495418,-0.96430755,-9.862019,0.33020952,11204495418,0.0061086523,-0.017104227,0.0018325958,11204495418,49.67578
11204504271,-0.94277215,-9.860822,0.31944183,11204504271,0.007941248,-0.017715093,0.0012217305,11204504271,49.67578
11204513119,-0.9499506,-9.866804,0.32662028,11204513119,0.0067195175,-0.017715093,0.00061086525,11204513119,49.710938
11204521971,-0.95712906,-9.857233,0.32422748,11204521971,0.0061086523,-0.017104227,0.00061086525,11204521971,49.710938
11204530802,-0.9619147,-9.866804,0.3361916,11204530802,0.0067195175,-0.017104227,0.00061086525,11204530802,49.66797
11204539661,-0.9631111,-9.860822,0.33379877,11204539661,0.007941248,-0.017104227,0,11204539661,49.66797
11204548517,-0.96789676,-9.865608,0.3182454,11204548517,0.007330383,-0.016493361,0.0012217305,11204548517,49.67578
11204557361,-0.96789676,-9.858429,0.3074777,11204557361,0.0067195175,-0.017715093,0.0012217305,11204557361,49.67578
11204566201,-0.95832545,-9.8632145,0.31226337,11204566201,0.007941248,-0.017104227,0.0018325958,11204566201,49.67578
11204575053,-0.95712906,-9.869197,0.317049,11204575053,0.007330383,-0.017104227,0.0018325958,11204575053,49.67578
11204583907,-0.96789676,-9.865608,0.31106696,11204583907,0.007330383,-0.018325957,0.0012217305,11204583907,49.6875
11204592762,-0.9559326,-9.864411,0.31226337,11204592762,0.007330383,-0.017104227,0.0012217305,11204592762,49.6875
11204601596,-0.9607183,-9.864411,0.32183465,11204601596,0.008552114,-0.017715093,0.0012217305,11204601596,49.710938
11204610445,-0.9607183,-9.8632145,0.33260235,11204610445,0.007330383,-0.015882496,0.0012217305,11204610445,49.710938
11204619299,-0.9595219,-9.859626,0.317049,11204619299,0.0061086523,-0.016493361,0.0012217305,11204619299,49.660156
11204628201,-0.95832545,-9.8632145,0.317049,11204628201,0.0067195175,-0.017104227,0.00061086525,11204628201,49.660156
11204636999,-0.95473623,-9.870394,0.32063824,11204636999,0.0067195175,-0.017715093,0,11204636999,49.6875
11204645844,-0.9499506,-9.868001,0.32422748,11204645844,0.0067195175,-0.017715093,0.00061086525,11204645844,49.6875
11204654683,-0.96789676,-9.858429,0.30388847,11204654683,0.0067195175,-0.017104227,0.00061086525,11204654683,49.66797
11204663539,-0.9595219,-9.860822,0.32063824,11204663539,0.0061086523,-0.018325957,0.00061086525,11204663539,49.66797
11204672390,-0.9559326,-9.870394,0.32183465,11204672390,0.0061086523,-0.016493361,0,11204672390,49.660156
11204681231,-0.9619147,-9.864411,0.32662028,11204681231,0.007330383,-0.016493361,0.0012217305,11204681231,49.660156
11204690086,-0.95473623,-9.858429,0.31944183,11204690086,0.007330383,-0.015882496,0.0012217305,11204690086,49.710938
11204698938,-0.96430755,-9.87159,0.3278167,11204698938,0.0067195175,-0.017104227,0.0012217305,11204698938,49.710938
11204707782,-0.95473623,-9.866804,0.32303107,11204707782,0.0067195175,-0.016493361,0.0018325958,11204707782,49.6875
11204716630,-0.95712906,-9.868001,0.31944183,11204716630,0.0061086523,-0.016493361,0.00061086525,11204716630,49.6875
11204725479,-0.9595219,-9.862019,0.31585258,11204725479,0.007330383,-0.016493361,0.0012217305,11204725479,49.6875
11204734319,-0.9607183,-9.866804,0.31944183,11204734319,0.0067195175,-0.017715093,0.00061086525,11204734319,49.6875
11204743173,-0.9619147,-9.868001,0.30149564,11204743173,0.007330383,-0.015882496,0.0012217305,11204743173,49.695312
11204752028,-0.9726824,-9.868001,0.3182454,11204752028,0.008552114,-0.016493361,0.0012217305,11204752028,49.695312
11204760879,-0.9631111,-9.866804,0.31585258,11204760879,0.007941248,-0.017715093,0.0012217305,11204760879,49.67578
11204769720,-0.94396853,-9.8632145,0.32183465,11204769720,0.007941248,-0.017104227,0.0012217305,11204769720,49.67578
11204778584,-0.9631111,-9.87159,0.32662028,11204778584,0.007941248,-0.016493361,0.0012217305,11204778584,49.66797
11204787428,-0.96550393,-9.869197,0.31226337,11204787428,0.0067195175,-0.017104227,0.0012217305,11204787428,49.66797
11204796267,-0.9631111,-9.8632145,0.31585258,11204796267,0.0061086523,-0.016493361,0.00061086525,11204796267,49.6875
11204805118,-0.96430755,-9.859626,0.31585258,11204805118,0.0067195175,-0.015882496,0.00061086525,11204805118,49.6875
11204813963,-0.971486,-9.869197,0.30987054,11204813963,0.007941248,-0.016493361,0.00061086525,11204813963,49.66797
