accelerationTimestamp,accelerationX,accelerationY,accelerationZ,angularSpeedTimestamp,angularSpeedX,angularSpeedY,angularSpeedZ,temperatureTimestamp,temperature
10110936166,-1.0588241,-9.858429,0.31465617,10110936166,0.007330383,-0.017104227,0.00061086525,10110936166,50.76953
10110945091,-1.0636097,-9.859626,0.32542387,10110945091,0.007330383,-0.017104227,0.0012217305,10110945091,50.753906
10110953866,-1.0695918,-9.866804,0.32063824,10110953866,0.0061086523,-0.017104227,0.00061086525,10110953866,50.753906
10110962721,-1.0660025,-9.858429,0.33140594,10110962721,0.007330383,-0.017715093,0.0012217305,10110962721,50.75
10110971579,-1.0624132,-9.856036,0.32183465,10110971579,0.008552114,-0.017104227,0,10110971579,50.75
10110980429,-1.0552348,-9.860822,0.3290131,10110980429,0.007941248,-0.015882496,0.0012217305,10110980429,50.76172
10110989276,-1.0540384,-9.865608,0.32063824,10110989276,0.008552114,-0.017104227,0.00061086525,10110989276,50.76172
10110998111,-1.052842,-9.856036,0.33020952,10110998111,0.007941248,-0.016493361,0,10110998111,50.765625
10111006959,-1.0683953,-9.858429,0.33379877,10111006959,0.0061086523,-0.014660766,0.00061086525,10111006959,50.765625
10111015808,-1.0707881,-9.859626,0.33020952,10111015808,0.0067195175,-0.015882496,0,10111015808,50.753906
10111024651,-1.0504491,-9.85484,0.33020952,10111024651,0.007330383,-0.017104227,0,10111024651,50.753906
10111033513,-1.0552348,-9.8632145,0.34097722,10111033513,0.008552114,-0.016493361,0.00061086525,10111033513,50.742188
10111042359,-1.0564312,-9.858429,0.3397808,10111042359,0.007330383,-0.016493361,0.00061086525,10111042359,50.742188
10111051199,-1.0707881,-9.857233,0.3385844,10111051199,0.008552114,-0.017104227,0,10111051199,50.75
10111060070,-1.0707881,-9.856036,0.3385844,10111060070,0.007941248,-0.015882496,0.00061086525,10111060070,50.75
10111068908,-1.052842,-9.865608,0.33738798,10111068908,0.008552114,-0.015882496,0.00061086525,10111068908,50.757812
10111077766,-1.0432707,-9.858429,0.34217364,10111077766,0.007941248,-0.016493361,0.0012217305,10111077766,50.757812
10111086599,-1.0588241,-9.860822,0.3278167,10111086599,0.009162978,-0.017715093,0.00061086525,10111086599,50.75
10111095457,-1.0695918,-9.856036,0.33379877,10111095457,0.007941248,-0.015882496,0,10111095457,50.75
10111104301,-1.0731809,-9.866804,0.33020952,10111104301,0.0067195175,-0.014660766,0,10111104301,50.742188
10111113143,-1.0743774,-9.862019,0.3290131,10111113143,0.008552114,-0.015271631,0.0012217305,10111113143,50.742188
10111121992,-1.052842,-9.8632145,0.3278167,10111121992,0.008552114,-0.015882496,0.00061086525,10111121992,50.726562
10111130858,-1.0432707,-9.858429,0.33020952,10111130858,0.008552114,-0.014660766,-0.00061086525,10111130858,50.726562
10111139693,-1.0468599,-9.8632145,0.33020952,10111139693,0.007941248,-0.015271631,0.00061086525,10111139693,50.75
10111148544,-1.0600204,-9.865608,0.34097722,10111148544,0.007941248,-0.017104227,0.0012217305,10111148544,50.75
10111157405,-1.0683953,-9.864411,0.34576288,10111157405,0.007330383,-0.016493361,0.00061086525,10111157405,50.757812
10111166253,-1.0671989,-9.87159,0.33499518,10111166253,0.005497787,-0.016493361,0.00061086525,10111166253,50.757812
10111175090,-1.0636097,-9.862019,0.3361916,10111175090,0.007330383,-0.015882496,0.00061086525,10111175090,50.76172
10111183934,-1.0576276,-9.859626,0.33738798,10111183934,0.0067195175,-0.014660766,0.00061086525,10111183934,50.76172
10111192805,-1.0600204,-9.865608,0.33738798,10111192805,0.007330383,-0.014049901,0.00061086525,10111192805,50.765625
10111201632,-1.0660025,-9.857233,0.34217364,10111201632,0.0067195175,-0.014660766,0,10111201632,50.765625
10111210489,-1.0600204,-9.85484,0.33738798,10111210489,0.008552114,-0.014660766,0.0012217305,10111210489,50.773438
10111219339,-1.0588241,-9.856036,0.3481557,10111219339,0.007330383,-0.014049901,0.0012217305,10111219339,50.773438
10111228203,-1.0576276,-9.853643,0.3469593,10111228203,0.008552114,-0.014660766,0.0012217305,10111228203,50.757812
10111237052,-1.0683953,-9.869197,0.357727,10111237052,0.0067195175,-0.017104227,0.0012217305,10111237052,50.757812
10111245893,-1.0636097,-9.859626,0.3505485,10111245893,0.0067195175,-0.017715093,0.00061086525,10111245893,50.773438
10111254856,-1.0648061,-9.862019,0.35653058,10111254856,0.007330383,-0.018325957,0,10111254856,50.773438
10111263585,-1.0480564,-9.856036,0.3589234,10111263585,0.007330383,-0.015882496,0,10111263585,50.757812
10111272446,-1.0504491,-9.859626,0.3493521,10111272446,0.0061086523,-0.016493361,0.00061086525,10111272446,50.757812
10111281273,-1.0564312,-9.856036,0.3469593,10111281273,0.007330383,-0.017104227,0.0012217305,10111281273,50.753906
10111290133,-1.0767702,-9.864411,0.34576288,10111290133,0.0061086523,-0.017104227,0.002443461,10111290133,50.753906
10111298992,-1.0648061,-9.859626,0.36370903,10111298992,0.007941248,-0.018325957,0.00061086525,10111298992,50.734375
10111307843,-1.0552348,-9.858429,0.3481557,10111307843,0.007330383,-0.017715093,0.0012217305,10111307843,50.734375
10111316690,-1.0600204,-9.860822,0.33260235,10111316690,0.0061086523,-0.017104227,0,10111316690,50.76172
10111325537,-1.0540384,-9.85484,0.3361916,10111325537,0.0067195175,-0.017104227,0,10111325537,50.76172
10111334381,-1.0540384,-9.862019,0.3469593,10111334381,0.0067195175,-0.017715093,0,10111334381,50.746094
10111343216,-1.0767702,-9.857233,0.34337005,10111343216,0.0067195175,-0.018936822,0.0012217305,10111343216,50.746094
10111352078,-1.0576276,-9.860822,0.33140594,10111352078,0.0067195175,-0.018936822,0.0012217305,10111352078,50.75
10111360933,-1.0600204,-9.860822,0.33499518,10111360933,0.007941248,-0.019547688,0,10111360933,50.75
10111369769,-1.0564312,-9.856036,0.33738798,10111369769,0.005497787,-0.017715093,0.00061086525,10111369769,50.71875
10111378624,-1.0504491,-9.862019,0.33140594,10111378624,0.0067195175,-0.017715093,0.0018325958,10111378624,50.71875
10111387473,-1.0552348,-9.858429,0.31465617,10111387473,0.007330383,-0.016493361,0.0018325958,10111387473,50.76172
10111396335,-1.0492527,-9.857233,0.32303107,10111396335,0.007330383,-0.016493361,0.0012217305,10111396335,50.76172
10111405168,-1.0600204,-9.8632145,0.33260235,10111405168,0.007330383,-0.016493361,0.00061086525,10111405168,50.722656
10111414012,-1.0576276,-9.862019,0.33020952,10111414012,0.007941248,-0.015882496,0,10111414012,50.722656
10111422875,-1.052842,-9.864411,0.33499518,10111422875,0.007330383,-0.016493361,0,10111422875,50.757812
10111431719,-1.0683953,-9.853643,0.3290131,10111431719,0.0067195175,-0.016493361,0,10111431719,50.757812
10111440561,-1.0588241,-9.853643,0.31345975,10111440561,0.007330383,-0.016493361,0.00061086525,10111440561,50.76172
10111449412,-1.0504491,-9.856036,0.32662028,10111449412,0.0067195175,-0.017104227,0,10111449412,50.76172
10111458266,-1.0444671,-9.851251,0.33738798,10111458266,0.007941248,-0.016493361,0,10111458266,50.757812
10111467105,-1.0480564,-9.856036,0.34337005,10111467105,0.007941248,-0.016493361,0.00061086525,10111467105,50.757812
10111475963,-1.0576276,-9.858429,0.33379877,10111475963,0.007941248,-0.015271631,0.00061086525,10111475963,50.73047
10111484941,-1.0743774,-9.856036,0.3361916,10111484941,0.007941248,-0.015882496,0.0018325958,10111484941,50.73047
10111493647,-1.0671989,-9.859626,0.33260235,10111493647,0.009773844,-0.015271631,0.0012217305,10111493647,50.79297
10111502518,-1.0636097,-9.859626,0.3385844,10111502518,0.008552114,-0.017104227,0,10111502518,50.79297
10111511346,-1.0480564,-9.860822,0.33738798,10111511346,0.007941248,-0.017715093,0.0012217305,10111511346,50.765625
10111520209,-1.0648061,-9.865608,0.33738798,10111520209,0.007941248,-0.017104227,0.0018325958,10111520209,50.765625
10111529048,-1.0695918,-9.860822,0.3290131,10111529048,0.007941248,-0.017715093,0.0012217305,10111529048,50.773438
10111537889,-1.0624132,-9.859626,0.32063824,10111537889,0.0067195175,-0.017104227,0.00061086525,10111537889,50.773438
10111546761,-1.0564312,-9.862019,0.3290131,10111546761,0.009162978,-0.017104227,0.0012217305,10111546761,50.757812
10111555611,-1.0552348,-9.859626,0.34217364,10111555611,0.0067195175,-0.016493361,0.0012217305,10111555611,50.757812
10111564455,-1.0504491,-9.865608,0.33260235,10111564455,0.007330383,-0.017104227,0,10111564455,50.757812
10111573298,-1.0552348,-9.8524475,0.3361916,10111573298,0.007330383,-0.016493361,0.0018325958,10111573298,50.757812
10111582147,-1.0588241,-9.85484,0.32303107,10111582147,0.007330383,-0.015882496,0.0012217305,10111582147,50.757812
10111590995,-1.0540384,-9.858429,0.32422748,10111590995,0.007941248,-0.015882496,0.002443461,10111590995,50.757812
10111599848,-1.0540384,-9.859626,0.33140594,10111599848,0.008552114,-0.014660766,0.0012217305,10111599848,50.773438
10111608689,-1.0552348,-9.856036,0.3278167,10111608689,0.008552114,-0.014660766,0.00061086525,10111608689,50.773438
10111617548,-1.0719845,-9.856036,0.33738798,10111617548,0.007330383,-0.015271631,0.0012217305,10111617548,50.765625
10111626406,-1.0600204,-9.860822,0.33020952,10111626406,0.007941248,-0.015271631,0,10111626406,50.765625
10111635238,-1.0504491,-9.8524475,0.34456646,10111635238,0.007330383,-0.014660766,0.00061086525,10111635238,50.773438
10111644082,-1.0600204,-9.857233,0.3397808,10111644082,0.007330383,-0.015271631,0,10111644082,50.773438
10111652940,-1.0600204,-9.8524475,0.35174492,10111652940,0.007941248,-0.015271631,0.00061086525,10111652940,50.78125
10111661797,-1.0600204,-9.859626,0.34456646,10111661797,0.008552114,-0.016493361,0.00061086525,10111661797,50.78125
10111670632,-1.0671989,-9.860822,0.3493521,10111670632,0.007330383,-0.016493361,0.00061086525,10111670632,50.757812
10111679478,-1.0576276,-9.850055,0.3493521,10111679478,0.007330383,-0.015882496,0.0012217305,10111679478,50.757812
10111688337,-1.0504491,-9.85484,0.35653058,10111688337,0.005497787,-0.015271631,0.0012217305,10111688337,50.73828
10111697177,-1.0504491,-9.85484,0.35413775,10111697177,0.0067195175,-0.016493361,0.0018325958,10111697177,50.73828
10111706049,-1.0576276,-9.858429,0.3505485,10111706049,0.007330383,-0.017104227,0.0012217305,10111706049,50.76172
10111714873,-1.0648061,-9.851251,0.35413775,10111714873,0.007330383,-0.017715093,0.00061086525,10111714873,50.76172
10111723716,-1.0648061,-9.862019,0.35533416,10111723716,0.007330383,-0.017715093,0.00061086525,10111723716,50.73828
10111732591,-1.0683953,-9.853643,0.34217364,10111732591,0.0061086523,-0.018936822,0.0012217305,10111732591,50.73828
10111741426,-1.0648061,-9.856036,0.34217364,10111741426,0.0061086523,-0.018325957,0.002443461,10111741426,50.777344
10111750278,-1.0588241,-9.858429,0.3385844,10111750278,0.005497787,-0.018325957,0.0012217305,10111750278,50.777344
10111759130,-1.0576276,-9.858429,0.3290131,10111759130,0.007941248,-0.018936822,0.0012217305,10111759130,50.753906
10111767975,-1.0564312,-9.856036,0.3385844,10111767975,0.008552114,-0.018936822,0.00061086525,10111767975,50.753906
10111776825,-1.0504491,-9.868001,0.3589234,10111776825,0.009162978,-0.018325957,0.0012217305,10111776825,50.742188
10111785677,-1.0576276,-9.853643,0.3493521,10111785677,0.007941248,-0.018325957,0,10111785677,50.742188
10111794520,-1.0624132,-9.8632145,0.33379877,10111794520,0.0067195175,-0.017715093,0.00061086525,10111794520,50.76953
10111803379,-1.0671989,-9.860822,0.33738798,10111803379,0.0067195175,-0.017104227,0.0012217305,10111803379,50.76953
10111812223,-1.0636097,-9.864411,0.33020952,10111812223,0.007941248,-0.017715093,0.00061086525,10111812223,50.753906
10111821077,-1.0636097,-9.862019,0.33140594,10111821077,0.005497787,-0.017104227,0.0012217305,10111821077,50.753906
10111829911,-1.0576276,-9.859626,0.33379877,10111829911,0.004886922,-0.016493361,0.00061086525,10111829911,50.76172
10111838775,-1.0600204,-9.857233,0.3385844,10111838775,0.0067195175,-0.017104227,0,10111838775,50.76172
10111847610,-1.0588241,-9.858429,0.33260235,10111847610,0.0067195175,-0.015882496,0.00061086525,10111847610,50.753906
10111856465,-1.0564312,-9.859626,0.3397808,10111856465,0.007330383,-0.015882496,0.00061086525,10111856465,50.753906
10111865326,-1.0612168,-9.856036,0.3397808,10111865326,0.007330383,-0.015882496,0.0018325958,10111865326,50.757812
10111874170,-1.0624132,-9.862019,0.3469593,10111874170,0.0061086523,-0.017104227,0.00061086525,10111874170,50.757812
10111883016,-1.0516455,-9.864411,0.32422748,10111883016,0.0061086523,-0.017715093,0.00061086525,10111883016,50.734375
10111891866,-1.0564312,-9.846465,0.33260235,10111891866,0.0067195175,-0.017715093,0.0012217305,10111891866,50.734375
10111900706,-1.0660025,-9.860822,0.3290131,10111900706,0.0061086523,-0.015882496,0.0012217305,10111900706,50.75
10111909571,-1.0707881,-9.869197,0.33020952,10111909571,0.0061086523,-0.015882496,0.00061086525,10111909571,50.75
10111918422,-1.0600204,-9.8727865,0.32063824,10111918422,0.0061086523,-0.017715093,0.00061086525,10111918422,50.757812
10111927245,-1.0636097,-9.859626,0.33020952,10111927245,0.007330383,-0.017715093,-0.00061086525,10111927245,50.757812
10111936115,-1.0624132,-9.864411,0.33020952,10111936115,0.007941248,-0.017104227,0.0012217305,10111936115,50.76953
10111944951,-1.0671989,-9.862019,0.3397808,10111944951,0.007330383,-0.017104227,0.00061086525,10111944951,50.76953
10111953794,-1.0552348,-9.8632145,0.3182454,10111953794,0.0067195175,-0.018325957,0.0012217305,10111953794,50.773438
10111962651,-1.0552348,-9.858429,0.31226337,10111962651,0.007941248,-0.017104227,0.0018325958,10111962651,50.773438
10111971502,-1.052842,-9.856036,0.31465617,10111971502,0.0067195175,-0.016493361,0,10111971502,50.765625
10111980344,-1.0588241,-9.8524475,0.32183465,10111980344,0.007941248,-0.018325957,0.00061086525,10111980344,50.765625
10111989211,-1.0540384,-9.864411,0.31465617,10111989211,0.008552114,-0.015882496,0.00061086525,10111989211,50.73828
10111998046,-1.0552348,-9.860822,0.3182454,10111998046,0.007941248,-0.015271631,0.0012217305,10111998046,50.73828
10112006902,-1.0624132,-9.866804,0.32183465,10112006902,0.007330383,-0.017104227,0.0012217305,10112006902,50.757812
10112015746,-1.0671989,-9.860822,0.31944183,10112015746,0.0067195175,-0.015882496,0.00061086525,10112015746,50.757812
10112024590,-1.052842,-9.865608,0.32542387,10112024590,0.0067195175,-0.015882496,0.00061086525,10112024590,50.75
10112033441,-1.052842,-9.857233,0.33379877,10112033441,0.0061086523,-0.015271631,0.00061086525,10112033441,50.75
10112042301,-1.0588241,-9.864411,0.32662028,10112042301,0.007330383,-0.014049901,0.0012217305,10112042301,50.757812
10112051135,-1.0600204,-9.857233,0.3361916,10112051135,0.007330383,-0.014660766,0.0012217305,10112051135,50.757812
10112060003,-1.0636097,-9.856036,0.3290131,10112060003,0.007330383,-0.015271631,0.00061086525,10112060003,50.757812
10112068848,-1.0492527,-9.8632145,0.33379877,10112068848,0.0067195175,-0.015271631,0,10112068848,50.757812
10112077694,-1.0444671,-9.859626,0.3493521,10112077694,0.007941248,-0.015271631,0,10112077694,50.757812
10112086534,-1.0444671,-9.857233,0.35413775,10112086534,0.007330383,-0.014660766,0,10112086534,50.757812
10112095399,-1.0564312,-9.857233,0.36251262,10112095399,0.007941248,-0.016493361,0.00061086525,10112095399,50.734375
10112104243,-1.0707881,-9.857233,0.34456646,10112104243,0.0067195175,-0.015882496,0.00061086525,10112104243,50.734375
10112113094,-1.0671989,-9.860822,0.35294133,10112113094,0.008552114,-0.016493361,0.00061086525,10112113094,50.76953
10112121935,-1.0624132,-9.85484,0.36251262,10112121935,0.008552114,-0.016493361,0.0012217305,10112121935,50.76953
10112130779,-1.0624132,-9.856036,0.34456646,10112130779,0.007941248,-0.017104227,0.00061086525,10112130779,50.73047
10112139627,-1.0552348,-9.858429,0.3361916,10112139627,0.007330383,-0.015882496,0.00061086525,10112139627,50.73047
10112148479,-1.0636097,-9.8632145,0.3361916,10112148479,0.007941248,-0.016493361,0.00061086525,10112148479,50.70703
10112157328,-1.0588241,-9.856036,0.3481557,10112157328,0.007330383,-0.017104227,0.00061086525,10112157328,50.70703
10112166188,-1.0516455,-9.85484,0.3397808,10112166188,0.007330383,-0.017104227,0.00061086525,10112166188,50.757812
10112175045,-1.0540384,-9.847662,0.3397808,10112175045,0.007330383,-0.015882496,0.0012217305,10112175045,50.757812
10112183888,-1.0588241,-9.856036,0.33020952,10112183888,0.007330383,-0.016493361,0.00061086525,10112183888,50.69922
10112192718,-1.0576276,-9.857233,0.34217364,10112192718,0.007941248,-0.016493361,0,10112192718,50.69922
10112201587,-1.0600204,-9.862019,0.34576288,10112201587,0.007330383,-0.016493361,0,10112201587,50.726562
10112210437,-1.0612168,-9.853643,0.3361916,10112210437,0.007330383,-0.016493361,0.0012217305,10112210437,50.726562
10112219277,-1.0671989,-9.859626,0.33738798,10112219277,0.0067195175,-0.015882496,0.00061086525,10112219277,50.742188
10112228129,-1.0671989,-9.862019,0.34337005,10112228129,0.0061086523,-0.017104227,0.00061086525,10112228129,50.742188
10112236982,-1.0719845,-9.858429,0.34097722,10112236982,0.007330383,-0.017104227,0.0012217305,10112236982,50.734375
10112245827,-1.0660025,-9.864411,0.3481557,10112245827,0.0061086523,-0.017715093,0.00061086525,10112245827,50.734375
10112254783,-1.0612168,-9.857233,0.34217364,10112254783,0.0067195175,-0.016493361,0.0012217305,10112254783,50.742188
10112263512,-1.0492527,-9.865608,0.34576288,10112263512,0.007330383,-0.015882496,0.00061086525,10112263512,50.742188
10112272361,-1.0540384,-9.865608,0.35413775,10112272361,0.007330383,-0.015882496,0.0012217305,10112272361,50.76953
10112281219,-1.0564312,-9.858429,0.35294133,10112281219,0.0067195175,-0.015882496,0.0018325958,10112281219,50.76953
10112290062,-1.0600204,-9.850055,0.3397808,10112290062,0.007941248,-0.017715093,0.0012217305,10112290062,50.703125
10112298921,-1.0588241,-9.858429,0.3469593,10112298921,0.007941248,-0.016493361,0.00061086525,10112298921,50.703125
10112307767,-1.0468599,-9.847662,0.3493521,10112307767,0.007330383,-0.016493361,0.0012217305,10112307767,50.75
10112316619,-1.0540384,-9.8632145,0.34576288,10112316619,0.007941248,-0.018325957,0.00061086525,10112316619,50.75
10112325455,-1.0671989,-9.866804,0.34217364,10112325455,0.007941248,-0.017104227,0.0012217305,10112325455,50.71875
10112334299,-1.0624132,-9.853643,0.3481557,10112334299,0.0067195175,-0.017715093,0.00061086525,10112334299,50.71875
10112343153,-1.0648061,-9.857233,0.34456646,10112343153,0.0067195175,-0.019547688,0.0012217305,10112343153,50.76172
10112352010,-1.0671989,-9.8524475,0.3361916,10112352010,0.007330383,-0.018936822,0.00061086525,10112352010,50.76172
10112360862,-1.0480564,-9.856036,0.32303107,10112360862,0.0061086523,-0.018325957,0.0012217305,10112360862,50.746094
10112369713,-1.0468599,-9.857233,0.32542387,10112369713,0.0061086523,-0.018325957,0.0012217305,10112369713,50.746094
10112378565,-1.0564312,-9.858429,0.32542387,10112378565,0.005497787,-0.017104227,0.002443461,10112378565,50.734375
10112387403,-1.0636097,-9.8727865,0.32542387,10112387403,0.0061086523,-0.017104227,0,10112387403,50.734375
10112396266,-1.0516455,-9.864411,0.31944183,10112396266,0.0067195175,-0.017715093,0.00061086525,10112396266,50.757812
10112405117,-1.0420742,-9.864411,0.31944183,10112405117,0.0067195175,-0.018325957,0,10112405117,50.757812
10112413961,-1.052842,-9.857233,0.32303107,10112413961,0.007941248,-0.017104227,0.0012217305,10112413961,50.76172
10112422809,-1.0660025,-9.8632145,0.3361916,10112422809,0.0067195175,-0.015882496,0.0012217305,10112422809,50.76172
10112431653,-1.0588241,-9.856036,0.32662028,10112431653,0.008552114,-0.015882496,0.0018325958,10112431653,50.78125
10112440501,-1.0648061,-9.865608,0.32662028,10112440501,0.007941248,-0.016493361,0.00061086525,10112440501,50.78125
10112449356,-1.0660025,-9.860822,0.31465617,10112449356,0.0067195175,-0.015271631,0.00061086525,10112449356,50.757812
10112458202,-1.0576276,-9.859626,0.33020952,10112458202,0.007330383,-0.015271631,0.0018325958,10112458202,50.757812
10112467051,-1.0588241,-9.869197,0.3290131,10112467051,0.007330383,-0.014660766,0.0012217305,10112467051,50.753906
10112475900,-1.0636097,-9.85484,0.3361916,10112475900,0.007330383,-0.014660766,0.0012217305,10112475900,50.753906
10112484864,-1.0624132,-9.860822,0.34337005,10112484864,0.008552114,-0.015271631,0.0012217305,10112484864,50.757812
10112493593,-1.0564312,-9.8632145,0.33379877,10112493593,0.008552114,-0.014660766,0.00061086525,10112493593,50.757812
10112502433,-1.0588241,-9.844072,0.34337005,10112502433,0.007941248,-0.015882496,0.0012217305,10112502433,50.742188
10112511302,-1.0516455,-9.8632145,0.3469593,10112511302,0.007941248,-0.015882496,0.00061086525,10112511302,50.742188
10112520056,-1.0576276,-9.860822,0.33020952,10112520056,0.008552114,-0.017104227,0.00061086525,10112520056,50.76172
10112528993,-1.0671989,-9.851251,0.33379877,10112528993,0.007330383,-0.017104227,0.0012217305,10112528993,50.76172
10112537831,-1.0660025,-9.862019,0.33379877,10112537831,0.0067195175,-0.016493361,0.00061086525,10112537831,50.757812
10112546698,-1.0660025,-9.858429,0.34217364,10112546698,0.0067195175,-0.017104227,0.0018325958,10112546698,50.757812
10112555538,-1.0671989,-9.868001,0.34217364,10112555538,0.007330383,-0.017104227,0.0012217305,10112555538,50.765625
10112564381,-1.0660025,-9.862019,0.32303107,10112564381,0.0061086523,-0.017104227,0.0018325958,10112564381,50.765625
10112573229,-1.0552348,-9.860822,0.33260235,10112573229,0.0067195175,-0.017715093,0.00061086525,10112573229,50.753906
10112582089,-1.0600204,-9.864411,0.33379877,10112582089,0.008552114,-0.017104227,0.00061086525,10112582089,50.753906
10112590929,-1.0552348,-9.8632145,0.33499518,10112590929,0.007330383,-0.015882496,0.0012217305,10112590929,50.757812
10112599779,-1.0564312,-9.857233,0.34097722,10112599779,0.0067195175,-0.014660766,0.00061086525,10112599779,50.757812
10112608621,-1.0492527,-9.853643,0.33738798,10112608621,0.008552114,-0.015882496,0,10112608621,50.691406
10112617485,-1.0648061,-9.850055,0.3385844,10112617485,0.007941248,-0.016493361,0.0012217305,10112617485,50.691406
10112626338,-1.0683953,-9.865608,0.32303107,10112626338,0.0061086523,-0.015882496,0.00061086525,10112626338,50.726562
10112635182,-1.0516455,-9.851251,0.33379877,10112635182,0.007330383,-0.015882496,0,10112635182,50.726562
10112644026,-1.0552348,-9.851251,0.3290131,10112644026,0.007941248,-0.014660766,0.00061086525,10112644026,50.76172
10112652871,-1.0636097,-9.847662,0.34097722,10112652871,0.0061086523,-0.015271631,0.0012217305,10112652871,50.76172
10112661716,-1.0660025,-9.862019,0.34097722,10112661716,0.0067195175,-0.016493361,0.0018325958,10112661716,50.757812
10112670581,-1.0683953,-9.859626,0.34337005,10112670581,0.007330383,-0.015882496,0.0012217305,10112670581,50.757812
10112679431,-1.0612168,-9.865608,0.34097722,10112679431,0.0067195175,-0.017104227,0.00061086525,10112679431,50.746094
10112688271,-1.0612168,-9.8524475,0.34097722,10112688271,0.007330383,-0.015882496,0.00061086525,10112688271,50.746094
10112697132,-1.0636097,-9.853643,0.35653058,10112697132,0.007941248,-0.015882496,0,10112697132,50.742188
10112705977,-1.0576276,-9.8524475,0.3505485,10112705977,0.007330383,-0.016493361,0,10112705977,50.742188
10112714880,-1.0612168,-9.859626,0.3493521,10112714880,0.0067195175,-0.017715093,0.00061086525,10112714880,50.76172
10112723655,-1.0588241,-9.851251,0.33379877,10112723655,0.007941248,-0.017104227,0.00061086525,10112723655,50.76172
10112732508,-1.0624132,-9.862019,0.3493521,10112732508,0.007330383,-0.016493361,0.00061086525,10112732508,50.757812
10112741184,-1.0540384,-9.866804,0.34217364,10112741184,0.0061086523,-0.018325957,0,10112741184,50.757812
10112750219,-1.052842,-9.859626,0.36131623,10112750219,0.007330383,-0.018325957,0.0012217305,10112750219,50.746094
10112759058,-1.0624132,-9.8524475,0.34097722,10112759058,0.007330383,-0.018325957,0,10112759058,50.746094
10112767905,-1.0624132,-9.870394,0.34456646,10112767905,0.007330383,-0.018325957,0.0012217305,10112767905,50.76172
10112776758,-1.0648061,-9.864411,0.3469593,10112776758,0.008552114,-0.017104227,0.0012217305,10112776758,50.76172
10112785602,-1.0707881,-9.862019,0.3290131,10112785602,0.007330383,-0.018325957,0.0012217305,10112785602,50.746094
10112794446,-1.0695918,-9.860822,0.31944183,10112794446,0.007941248,-0.017104227,0.00061086525,10112794446,50.746094
10112803314,-1.0576276,-9.857233,0.32183465,10112803314,0.007330383,-0.016493361,0.0012217305,10112803314,50.757812
10112812165,-1.052842,-9.853643,0.32422748,10112812165,0.008552114,-0.017104227,0.00061086525,10112812165,50.757812
10112821017,-1.0432707,-9.858429,0.32063824,10112821017,0.007330383,-0.017715093,0.00061086525,10112821017,50.76953
10112829855,-1.0540384,-9.866804,0.3290131,10112829855,0.007330383,-0.018325957,0.0018325958,10112829855,50.76953
10112838696,-1.0671989,-9.85484,0.33140594,10112838696,0.007330383,-0.017715093,0.00061086525,10112838696,50.773438
10112847555,-1.0612168,-9.85484,0.32422748,10112847555,0.0067195175,-0.016493361,0,10112847555,50.773438
10112856399,-1.0671989,-9.865608,0.3182454,10112856399,0.007330383,-0.016493361,0.00061086525,10112856399,50.753906
10112865251,-1.0648061,-9.868001,0.32662028,10112865251,0.008552114,-0.017715093,0,10112865251,50.753906
10112874095,-1.052842,-9.864411,0.32542387,10112874095,0.0067195175,-0.015882496,0.00061086525,10112874095,50.742188
10112882955,-1.0516455,-9.868001,0.33020952,10112882955,0.007941248,-0.014660766,0.00061086525,10112882955,50.742188
10112891783,-1.0516455,-9.858429,0.3481557,10112891783,0.008552114,-0.015271631,0.00061086525,10112891783,50.757812
10112900651,-1.0540384,-9.858429,0.33738798,10112900651,0.007941248,-0.014660766,0.0012217305,10112900651,50.757812
10112909491,-1.0719845,-9.860822,0.34456646,10112909491,0.007330383,-0.015271631,0.00061086525,10112909491,50.785156
10112918352,-1.0600204,-9.862019,0.33499518,10112918352,0.0067195175,-0.015882496,0.00061086525,10112918352,50.785156
10112927199,-1.0671989,-9.864411,0.33499518,10112927199,0.0061086523,-0.016493361,0.0018325958,10112927199,50.757812
10112936050,-1.0564312,-9.858429,0.32422748,10112936050,0.0061086523,-0.017715093,0.00061086525,10112936050,50.757812
10112944892,-1.0588241,-9.8632145,0.32422748,10112944892,0.0067195175,-0.017104227,0.0012217305,10112944892,50.757812
10112953735,-1.0564312,-9.864411,0.33020952,10112953735,0.0067195175,-0.017104227,0.00061086525,10112953735,50.757812
10112962581,-1.052842,-9.85484,0.33020952,10112962581,0.007941248,-0.016493361,0.00061086525,10112962581,50.757812
10112971430,-1.052842,-9.862019,0.3361916,10112971430,0.007941248,-0.015882496,0.00061086525,10112971430,50.757812
10112980294,-1.0588241,-9.860822,0.33260235,10112980294,0.0067195175,-0.015882496,0.0018325958,10112980294,50.757812
10112989146,-1.0552348,-9.85484,0.3278167,10112989146,0.007941248,-0.017104227,0.0012217305,10112989146,50.757812
10112997992,-1.0660025,-9.858429,0.3397808,10112997992,0.007941248,-0.016493361,0.0012217305,10112997992,50.753906
10113006831,-1.0648061,-9.868001,0.3361916,10113006831,0.008552114,-0.017104227,0.0012217305,10113006831,50.753906
10113015612,-1.0600204,-9.860822,0.33260235,10113015612,0.007330383,-0.016493361,0,10113015612,50.80078
10113024455,-1.052842,-9.858429,0.33260235,10113024455,0.007941248,-0.016493361,0,10113024455,50.80078
10113033371,-1.0564312,-9.857233,0.33020952,10113033371,0.008552114,-0.015882496,0,10113033371,50.773438
10113042238,-1.052842,-9.856036,0.33020952,10113042238,0.007330383,-0.015882496,0.0012217305,10113042238,50.773438
10113051084,-1.0564312,-9.858429,0.3385844,10113051084,0.007941248,-0.015882496,0.0012217305,10113051084,50.757812
10113059931,-1.0624132,-9.8524475,0.3469593,10113059931,0.007330383,-0.015882496,0.00061086525,10113059931,50.757812
10113068786,-1.0564312,-9.8524475,0.34576288,10113068786,0.009162978,-0.015271631,0.0012217305,10113068786,50.773438
10113077625,-1.0612168,-9.85484,0.34217364,10113077625,0.0067195175,-0.015882496,0.00061086525,10113077625,50.773438
10113086482,-1.0648061,-9.862019,0.35294133,10113086482,0.0061086523,-0.015882496,0.0012217305,10113086482,50.765625
10113095312,-1.0600204,-9.8632145,0.35294133,10113095312,0.0061086523,-0.015271631,0,10113095312,50.765625
10113104156,-1.0695918,-9.856036,0.3397808,10113104156,0.007330383,-0.016493361,0.0012217305,10113104156,50.757812
10113113020,-1.0660025,-9.866804,0.33140594,10113113020,0.0067195175,-0.017104227,0.0012217305,10113113020,50.757812
10113121867,-1.0516455,-9.862019,0.3589234,10113121867,0.0061086523,-0.017104227,0.0012217305,10113121867,50.753906
10113130714,-1.0636097,-9.8632145,0.35653058,10113130714,0.007330383,-0.016493361,0.0012217305,10113130714,50.753906
10113139563,-1.0600204,-9.85484,0.35174492,10113139563,0.007941248,-0.017104227,0.0012217305,10113139563,50.757812
10113148409,-1.0588241,-9.864411,0.35653058,10113148409,0.0067195175,-0.016493361,-0.00061086525,10113148409,50.757812
10113157272,-1.0504491,-9.860822,0.36011982,10113157272,0.0061086523,-0.016493361,0,10113157272,50.76172
10113166114,-1.0648061,-9.857233,0.357727,10113166114,0.0067195175,-0.017715093,0.00061086525,10113166114,50.76172
10113174967,-1.0612168,-9.858429,0.3469593,10113174967,0.007941248,-0.016493361,0.002443461,10113174967,50.746094
10113183810,-1.0636097,-9.858429,0.34576288,10113183810,0.0061086523,-0.017104227,0.00061086525,10113183810,50.746094
10113192653,-1.0600204,-9.858429,0.34337005,10113192653,0.0067195175,-0.018325957,0.00061086525,10113192653,50.75
10113201520,-1.0695918,-9.862019,0.3385844,10113201520,0.007941248,-0.018936822,0.00061086525,10113201520,50.75
10113210364,-1.0588241,-9.858429,0.34097722,10113210364,0.008552114,-0.018325957,0.0012217305,10113210364,50.757812
10113219207,-1.0588241,-9.862019,0.3493521,10113219207,0.0067195175,-0.017104227,0.0018325958,10113219207,50.757812
10113228051,-1.0671989,-9.864411,0.34456646,10113228051,0.0061086523,-0.018325957,0.0012217305,10113228051,50.76953
10113236922,-1.0552348,-9.856036,0.33738798,10113236922,0.0061086523,-0.017104227,0.0012217305,10113236922,50.76953
10113245748,-1.0600204,-9.859626,0.3361916,10113245748,0.0067195175,-0.016493361,0.0012217305,10113245748,50.722656
10113254592,-1.0492527,-9.8632145,0.33260235,10113254592,0.008552114,-0.017715093,0.0012217305,10113254592,50.722656
10113263443,-1.0492527,-9.858429,0.3278167,10113263443,0.007941248,-0.017715093,0,10113263443,50.76953
10113272301,-1.0564312,-9.860822,0.33738798,10113272301,0.0067195175,-0.016493361,0.00061086525,10113272301,50.76953
10113281145,-1.0552348,-9.860822,0.33379877,10113281145,0.0067195175,-0.015882496,0,10113281145,50.765625
10113290001,-1.0636097,-9.859626,0.32542387,10113290001,0.007330383,-0.017104227,0.00061086525,10113290001,50.765625
10113298844,-1.0719845,-9.8524475,0.34337005,10113298844,0.007330383,-0.015882496,0,10113298844,50.765625
10113307693,-1.0671989,-9.865608,0.33738798,10113307693,0.0067195175,-0.016493361,0,10113307693,50.765625
10113316556,-1.0564312,-9.850055,0.3397808,10113316556,0.007330383,-0.015882496,0.0012217305,10113316556,50.773438
10113325404,-1.0540384,-9.851251,0.3469593,10113325404,0.0067195175,-0.015882496,0.0012217305,10113325404,50.773438
10113334248,-1.0612168,-9.857233,0.33260235,10113334248,0.005497787,-0.018325957,0.0018325958,10113334248,50.746094
10113343101,-1.0648061,-9.864411,0.32662028,10113343101,0.0061086523,-0.018936822,0.0012217305,10113343101,50.746094
10113351950,-1.0683953,-9.850055,0.32542387,10113351950,0.007330383,-0.017715093,0.0012217305,10113351950,50.734375
10113360787,-1.052842,-9.862019,0.3290131,10113360787,0.007941248,-0.017104227,0.00061086525,10113360787,50.734375
10113369637,-1.0600204,-9.8524475,0.3361916,10113369637,0.0061086523,-0.017104227,0.00061086525,10113369637,50.757812
10113378502,-1.0564312,-9.862019,0.32662028,10113378502,0.007330383,-0.016493361,0.00061086525,10113378502,50.757812
10113387334,-1.0600204,-9.858429,0.33140594,10113387334,0.0067195175,-0.015882496,0.0018325958,10113387334,50.757812
10113396184,-1.0624132,-9.8524475,0.34217364,10113396184,0.007941248,-0.017104227,0.0018325958,10113396184,50.757812
10113405032,-1.0636097,-9.866804,0.3182454,10113405032,0.008552114,-0.018325957,0.0012217305,10113405032,50.71875
10113413876,-1.0695918,-9.8632145,0.32542387,10113413876,0.0067195175,-0.017104227,0.0012217305,10113413876,50.71875
10113422740,-1.0648061,-9.856036,0.32063824,10113422740,0.007330383,-0.014660766,0.00061086525,10113422740,50.742188
10113431576,-1.0695918,-9.8632145,0.32063824,10113431576,0.007330383,-0.015271631,0.00061086525,10113431576,50.742188
10113440431,-1.0624132,-9.860822,0.31944183,10113440431,0.007330383,-0.015271631,0.0012217305,10113440431,50.757812
10113449289,-1.0552348,-9.8524475,0.3278167,10113449289,0.007941248,-0.015882496,0.002443461,10113449289,50.757812
10113458134,-1.0648061,-9.858429,0.34337005,10113458134,0.007330383,-0.015271631,0.00061086525,10113458134,50.71875
10113466987,-1.0648061,-9.860822,0.34337005,10113466987,0.007941248,-0.015271631,0.00061086525,10113466987,50.71875
10113475843,-1.0624132,-9.860822,0.34456646,10113475843,0.007330383,-0.014660766,0.00061086525,10113475843,50.76953
10113484789,-1.0600204,-9.853643,0.34097722,10113484789,0.007330383,-0.014049901,0.00061086525,10113484789,50.76953
10113493518,-1.0660025,-9.860822,0.3361916,10113493518,0.007330383,-0.014049901,0.0012217305,10113493518,50.765625
10113502383,-1.0588241,-9.858429,0.33499518,10113502383,0.0067195175,-0.015882496,0.0012217305,10113502383,50.765625
10113511223,-1.0660025,-9.868001,0.34217364,10113511223,0.007941248,-0.015882496,0.00061086525,10113511223,50.753906
10113520075,-1.0648061,-9.868001,0.34576288,10113520075,0.007330383,-0.016493361,0.00061086525,10113520075,50.753906
10113528920,-1.0648061,-9.864411,0.35653058,10113528920,0.007330383,-0.017104227,0.00061086525,10113528920,50.75
10113537784,-1.0564312,-9.856036,0.3481557,10113537784,0.007330383,-0.017715093,0.002443461,10113537784,50.75
10113546633,-1.0516455,-9.868001,0.357727,10113546633,0.007330383,-0.016493361,0.0012217305,10113546633,50.76953
10113555471,-1.0576276,-9.859626,0.35294133,10113555471,0.008552114,-0.017104227,0,10113555471,50.76953
10113564315,-1.0636097,-9.862019,0.3469593,10113564315,0.007330383,-0.017715093,0,10113564315,50.765625
10113573156,-1.0492527,-9.851251,0.35533416,10113573156,0.0067195175,-0.017104227,0.0012217305,10113573156,50.765625
10113582018,-1.0648061,-9.862019,0.33738798,10113582018,0.0067195175,-0.017104227,0.0012217305,10113582018,50.789062
10113590867,-1.0636097,-9.856036,0.3505485,10113590867,0.007330383,-0.017715093,0.0012217305,10113590867,50.789062
10113599717,-1.0648061,-9.8632145,0.34456646,10113599717,0.008552114,-0.016493361,0.0012217305,10113599717,50.78125
10113608562,-1.0719845,-9.857233,0.3493521,10113608562,0.007941248,-0.017104227,0.00061086525,10113608562,50.78125
10113617413,-1.0552348,-9.860822,0.3505485,10113617413,0.007941248,-0.016493361,0,10113617413,50.765625
10113626270,-1.0648061,-9.85484,0.34576288,10113626270,0.0061086523,-0.017715093,0,10113626270,50.765625
10113635112,-1.0600204,-9.860822,0.34337005,10113635112,0.0067195175,-0.017715093,0.00061086525,10113635112,50.78125
10113643956,-1.0600204,-9.857233,0.34217364,10113643956,0.007330383,-0.016493361,0.0012217305,10113643956,50.78125
10113652815,-1.0576276,-9.85484,0.34217364,10113652815,0.007330383,-0.016493361,0.0012217305,10113652815,50.765625
10113661666,-1.0636097,-9.851251,0.33260235,10113661666,0.007330383,-0.017104227,0,10113661666,50.765625
10113670509,-1.0636097,-9.857233,0.33738798,10113670509,0.007941248,-0.017104227,0.0018325958,10113670509,50.765625
10113679354,-1.0564312,-9.862019,0.34217364,10113679354,0.0067195175,-0.017715093,0.00061086525,10113679354,50.765625
10113688207,-1.0648061,-9.85484,0.33499518,10113688207,0.007330383,-0.015882496,0.0012217305,10113688207,50.757812
10113697053,-1.0432707,-9.860822,0.3385844,10113697053,0.0067195175,-0.016493361,0.0012217305,10113697053,50.757812
10113705896,-1.0504491,-9.862019,0.3505485,10113705896,0.0067195175,-0.017104227,0.0012217305,10113705896,50.804688
10113714740,-1.0564312,-9.857233,0.3493521,10113714740,0.0067195175,-0.015882496,0.0012217305,10113714740,50.804688
10113723605,-1.0540384,-9.857233,0.34097722,10113723605,0.0067195175,-0.016493361,0,10113723605,50.746094
10113732438,-1.0540384,-9.857233,0.34097722,10113732438,0.007330383,-0.018325957,0.0012217305,10113732438,50.746094
10113741290,-1.0564312,-9.859626,0.33738798,10113741290,0.007330383,-0.017104227,0.0012217305,10113741290,50.757812
10113750143,-1.0588241,-9.862019,0.33140594,10113750143,0.007330383,-0.015882496,0.0012217305,10113750143,50.757812
10113758995,-1.0624132,-9.856036,0.33499518,10113758995,0.007330383,-0.015882496,0.0012217305,10113758995,50.76953
10113767852,-1.0588241,-9.858429,0.33738798,10113767852,0.007941248,-0.017104227,0.0012217305,10113767852,50.76953
10113776700,-1.0576276,-9.857233,0.34097722,10113776700,0.0067195175,-0.017715093,0.0012217305,10113776700,50.757812
10113785556,-1.0612168,-9.866804,0.3385844,10113785556,0.0067195175,-0.017715093,0.00061086525,10113785556,50.757812
10113794400,-1.0612168,-9.847662,0.3290131,10113794400,0.008552114,-0.017715093,0.0012217305,10113794400,50.78125
10113803246,-1.0624132,-9.8632145,0.33140594,10113803246,0.0067195175,-0.017715093,0.00061086525,10113803246,50.78125
10113812078,-1.0683953,-9.862019,0.32183465,10113812078,0.007330383,-0.017715093,0.0012217305,10113812078,50.753906
10113820948,-1.0588241,-9.865608,0.3182454,10113820948,0.0067195175,-0.016493361,0.0012217305,10113820948,50.753906
10113829781,-1.0576276,-9.858429,0.32063824,10113829781,0.0061086523,-0.015882496,0.0018325958,10113829781,50.757812
10113838646,-1.0564312,-9.856036,0.31944183,10113838646,0.0067195175,-0.016493361,0.0012217305,10113838646,50.757812
10113847490,-1.0576276,-9.8524475,0.32303107,10113847490,0.0067195175,-0.016493361,0.00061086525,10113847490,50.76953
10113856346,-1.0671989,-9.853643,0.32422748,10113856346,0.007941248,-0.015882496,0.0018325958,10113856346,50.76953
10113865180,-1.0624132,-9.864411,0.3182454,10113865180,0.0067195175,-0.015882496,0.0012217305,10113865180,50.765625
10113874024,-1.0540384,-9.869197,0.33140594,10113874024,0.007330383,-0.015271631,0.0012217305,10113874024,50.765625
10113882881,-1.0540384,-9.864411,0.3278167,10113882881,0.007941248,-0.015882496,0.0012217305,10113882881,50.746094
10113891739,-1.0707881,-9.862019,0.32542387,10113891739,0.008552114,-0.015882496,0,10113891739,50.746094
10113900583,-1.0648061,-9.857233,0.31465617,10113900583,0.007941248,-0.015271631,0.00061086525,10113900583,50.734375
10113909426,-1.0636097,-9.864411,0.32303107,10113909426,0.008552114,-0.014049901,0.00061086525,10113909426,50.734375
10113918288,-1.0600204,-9.864411,0.33140594,10113918288,0.008552114,-0.015271631,0.00061086525,10113918288,50.757812
10113927121,-1.0600204,-9.857233,0.34456646,10113927121,0.007330383,-0.015882496,0.0012217305,10113927121,50.757812
10113935988,-1.0636097,-9.853643,0.34456646,10113935988,0.0067195175,-0.015882496,0.00061086525,10113935988,50.757812
10113944851,-1.0576276,-9.853643,0.3469593,10113944851,0.0067195175,-0.015271631,0.00061086525,10113944851,50.757812
10113953672,-1.0636097,-9.857233,0.35174492,10113953672,0.007941248,-0.016493361,0.0012217305,10113953672,50.742188
10113962518,-1.0516455,-9.864411,0.3505485,10113962518,0.0067195175,-0.015882496,0.00061086525,10113962518,50.742188
10113971381,-1.0504491,-9.8632145,0.34456646,10113971381,0.007941248,-0.016493361,0.00061086525,10113971381,50.757812
10113980213,-1.0707881,-9.864411,0.3385844,10113980213,0.007941248,-0.016493361,0.0012217305,10113980213,50.757812
10113989061,-1.0719845,-9.8632145,0.3290131,10113989061,0.007330383,-0.017104227,0.00061086525,10113989061,50.757812
10113997927,-1.0671989,-9.860822,0.34217364,10113997927,0.007941248,-0.016493361,0.0012217305,10113997927,50.757812
10114006776,-1.0648061,-9.860822,0.34097722,10114006776,0.007941248,-0.015271631,0.00061086525,10114006776,50.742188
10114015631,-1.0516455,-9.860822,0.3385844,10114015631,0.008552114,-0.015882496,0.00061086525,10114015631,50.742188
10114024475,-1.0540384,-9.856036,0.3481557,10114024475,0.007941248,-0.015882496,0.00061086525,10114024475,50.757812
10114033317,-1.0683953,-9.859626,0.34576288,10114033317,0.0067195175,-0.016493361,0.0012217305,10114033317,50.757812
10114042153,-1.0660025,-9.860822,0.3397808,10114042153,0.007941248,-0.017104227,0.00061086525,10114042153,50.777344
10114051015,-1.0636097,-9.8524475,0.34337005,10114051015,0.008552114,-0.017104227,0.0012217305,10114051015,50.777344
10114059869,-1.0564312,-9.859626,0.3469593,10114059869,0.007330383,-0.016493361,0.0012217305,10114059869,50.757812
10114068715,-1.0516455,-9.865608,0.34337005,10114068715,0.007330383,-0.017104227,0.00061086525,10114068715,50.757812
10114077566,-1.0636097,-9.8524475,0.3481557,10114077566,0.008552114,-0.016493361,0.0012217305,10114077566,50.773438
10114086420,-1.0612168,-9.850055,0.35174492,10114086420,0.008552114,-0.015882496,0.0012217305,10114086420,50.773438
10114095271,-1.0648061,-9.857233,0.3505485,10114095271,0.007941248,-0.015882496,0.0012217305,10114095271,50.757812
10114104115,-1.0588241,-9.857233,0.3397808,10114104115,0.0067195175,-0.016493361,0.00061086525,10114104115,50.757812
10114112944,-1.0516455,-9.857233,0.3589234,10114112944,0.005497787,-0.017715093,0.00061086525,10114112944,50.753906
10114121794,-1.0588241,-9.869197,0.34217364,10114121794,0.007941248,-0.017715093,0.0012217305,10114121794,50.753906
10114130650,-1.0600204,-9.858429,0.3493521,10114130650,0.007941248,-0.015271631,0.00061086525,10114130650,50.757812
10114139495,-1.0540384,-9.85484,0.3481557,10114139495,0.0067195175,-0.017104227,0.00061086525,10114139495,50.757812
10114148342,-1.0540384,-9.85484,0.33738798,10114148342,0.0061086523,-0.016493361,0.0012217305,10114148342,50.757812
10114157211,-1.0540384,-9.862019,0.3469593,10114157211,0.007330383,-0.018325957,0.0012217305,10114157211,50.757812
10114166044,-1.0540384,-9.8632145,0.3493521,10114166044,0.0067195175,-0.017715093,0.0012217305,10114166044,50.71875
10114174909,-1.0612168,-9.8632145,0.33499518,10114174909,0.0061086523,-0.018325957,0.0018325958,10114174909,50.71875
10114183752,-1.0648061,-9.851251,0.3385844,10114183752,0.007330383,-0.018325957,0.0012217305,10114183752,50.76172
10114192592,-1.0612168,-9.866804,0.34097722,10114192592,0.007941248,-0.016493361,0.0012217305,10114192592,50.76172
10114201447,-1.0480564,-9.851251,0.32542387,10114201447,0.0061086523,-0.017715093,0.0012217305,10114201447,50.78125
10114210301,-1.0552348,-9.860822,0.3278167,10114210301,0.007330383,-0.018325957,0.00061086525,10114210301,50.78125
10114219154,-1.0671989,-9.858429,0.32662028,10114219154,0.007330383,-0.017104227,0.0018325958,10114219154,50.757812
10114227991,-1.0540384,-9.862019,0.31585258,10114227991,0.007330383,-0.018325957,0.0012217305,10114227991,50.757812
10114236846,-1.0552348,-9.859626,0.32303107,10114236846,0.007941248,-0.017715093,0.0018325958,10114236846,50.78125
10114245698,-1.052842,-9.856036,0.32063824,10114245698,0.008552114,-0.016493361,0.0012217305,10114245698,50.78125
10114254542,-1.0516455,-9.85484,0.32662028,10114254542,0.007330383,-0.017715093,0.00061086525,10114254542,50.78125
10114263384,-1.0552348,-9.858429,0.3182454,10114263384,0.005497787,-0.017104227,0.00061086525,10114263384,50.78125
10114272239,-1.0660025,-9.856036,0.31465617,10114272239,0.007330383,-0.016493361,0.00061086525,10114272239,50.753906
10114281088,-1.0660025,-9.856036,0.3278167,10114281088,0.0067195175,-0.015882496,0.00061086525,10114281088,50.753906
10114289927,-1.0779666,-9.857233,0.33499518,10114289927,0.007941248,-0.017104227,0.0012217305,10114289927,50.75
10114298785,-1.0707881,-9.864411,0.33738798,10114298785,0.0067195175,-0.016493361,0.0012217305,10114298785,50.75
10114307633,-1.0624132,-9.859626,0.33140594,10114307633,0.0061086523,-0.017104227,0.0012217305,10114307633,50.734375
10114316483,-1.0624132,-9.851251,0.32422748,10114316483,0.007330383,-0.017104227,0.0012217305,10114316483,50.734375
10114325329,-1.0671989,-9.857233,0.3290131,10114325329,0.007330383,-0.016493361,0.0018325958,10114325329,50.726562
10114334173,-1.0516455,-9.8524475,0.33379877,10114334173,0.007941248,-0.016493361,0.0012217305,10114334173,50.726562
10114343027,-1.0492527,-9.857233,0.32662028,10114343027,0.008552114,-0.016493361,0.00061086525,10114343027,50.742188
10114351874,-1.0540384,-9.858429,0.33260235,10114351874,0.007941248,-0.015271631,0.00061086525,10114351874,50.742188
10114360730,-1.0671989,-9.85484,0.33020952,10114360730,0.007330383,-0.015882496,0,10114360730,50.726562
10114369582,-1.0636097,-9.862019,0.33140594,10114369582,0.0067195175,-0.017715093,0,10114369582,50.726562
10114378418,-1.052842,-9.862019,0.32662028,10114378418,0.0061086523,-0.016493361,0.00061086525,10114378418,50.76953
10114387266,-1.0779666,-9.860822,0.3290131,10114387266,0.007941248,-0.016493361,0,10114387266,50.76953
10114396136,-1.0660025,-9.862019,0.33379877,10114396136,0.007941248,-0.016493361,-0.00061086525,10114396136,50.746094
10114404979,-1.0588241,-9.858429,0.34456646,10114404979,0.007941248,-0.015882496,0.00061086525,10114404979,50.746094
10114413822,-1.0588241,-9.864411,0.34097722,10114413822,0.0067195175,-0.017104227,0.00061086525,10114413822,50.76172
10114422665,-1.0648061,-9.868001,0.33020952,10114422665,0.0067195175,-0.016493361,0,10114422665,50.76172
10114431515,-1.0600204,-9.857233,0.33260235,10114431515,0.0067195175,-0.016493361,0.0012217305,10114431515,50.765625
10114440375,-1.0624132,-9.856036,0.33499518,10114440375,0.007330383,-0.016493361,0.00061086525,10114440375,50.765625
10114449227,-1.0480564,-9.8632145,0.34576288,10114449227,0.008552114,-0.015882496,0.0012217305,10114449227,50.78125
10114458061,-1.0648061,-9.856036,0.34337005,10114458061,0.007941248,-0.016493361,0,10114458061,50.78125
10114466919,-1.0612168,-9.866804,0.34456646,10114466919,0.008552114,-0.016493361,0.00061086525,10114466919,50.722656
10114475770,-1.0564312,-9.859626,0.3385844,10114475770,0.0067195175,-0.015882496,0.00061086525,10114475770,50.722656
10114484614,-1.0648061,-9.868001,0.33379877,10114484614,0.0067195175,-0.015882496,0.00061086525,10114484614,50.777344
10114493459,-1.0612168,-9.8524475,0.3469593,10114493459,0.007330383,-0.017104227,0.0012217305,10114493459,50.777344
10114502301,-1.0671989,-9.860822,0.34456646,10114502301,0.007941248,-0.016493361,0.00061086525,10114502301,50.78125
10114511157,-1.0743774,-9.8632145,0.34337005,10114511157,0.007330383,-0.016493361,0.0012217305,10114511157,50.78125
10114520017,-1.0671989,-9.858429,0.34456646,10114520017,0.007941248,-0.015882496,0.00061086525,10114520017,50.789062
10114528850,-1.0588241,-9.858429,0.3493521,10114528850,0.007330383,-0.015882496,0,10114528850,50.789062
10114537701,-1.0600204,-9.857233,0.3505485,10114537701,0.0067195175,-0.014049901,0.0012217305,10114537701,50.757812
10114546553,-1.052842,-9.858429,0.3493521,10114546553,0.007941248,-0.015271631,0.00061086525,10114546553,50.757812
10114555402,-1.0552348,-9.864411,0.35533416,10114555402,0.007941248,-0.015882496,0.00061086525,10114555402,50.746094
10114564246,-1.0576276,-9.858429,0.36370903,10114564246,0.0067195175,-0.016493361,0.0012217305,10114564246,50.746094
10114573111,-1.0755738,-9.857233,0.35294133,10114573111,0.007330383,-0.017715093,0.0012217305,10114573111,50.777344
10114581953,-1.0719845,-9.868001,0.34576288,10114581953,0.0067195175,-0.017715093,0.0012217305,10114581953,50.777344
10114590800,-1.0648061,-9.864411,0.34456646,10114590800,0.0067195175,-0.016493361,0.0012217305,10114590800,50.765625
10114599654,-1.0707881,-9.859626,0.3385844,10114599654,0.007941248,-0.017715093,0.0012217305,10114599654,50.765625
10114608507,-1.052842,-9.862019,0.33738798,10114608507,0.008552114,-0.017715093,0.0012217305,10114608507,50.746094
10114617337,-1.0600204,-9.858429,0.3397808,10114617337,0.007941248,-0.016493361,0.0012217305,10114617337,50.746094
10114626194,-1.0540384,-9.8632145,0.34097722,10114626194,0.0067195175,-0.017715093,0.00061086525,10114626194,50.757812
10114635034,-1.0576276,-9.856036,0.3397808,10114635034,0.007330383,-0.017104227,0.00061086525,10114635034,50.757812
10114643878,-1.0612168,-9.8632145,0.33140594,10114643878,0.008552114,-0.018325957,0.00061086525,10114643878,50.75
10114652742,-1.0600204,-9.859626,0.34456646,10114652742,0.007330383,-0.016493361,0.0012217305,10114652742,50.75
10114661594,-1.0576276,-9.8524475,0.33499518,10114661594,0.0067195175,-0.017104227,0.0012217305,10114661594,50.75
10114670434,-1.0660025,-9.8632145,0.33020952,10114670434,0.007330383,-0.017715093,0,10114670434,50.75
10114679302,-1.0600204,-9.8524475,0.3397808,10114679302,0.007330383,-0.017715093,0,10114679302,50.757812
10114688142,-1.0564312,-9.8524475,0.33140594,10114688142,0.0067195175,-0.018325957,0.00061086525,10114688142,50.757812
10114696991,-1.0648061,-9.862019,0.32662028,10114696991,0.007330383,-0.017104227,0.0018325958,10114696991,50.757812
10114705844,-1.0624132,-9.860822,0.3290131,10114705844,0.007941248,-0.016493361,0.0012217305,10114705844,50.757812
10114714800,-1.0636097,-9.866804,0.34097722,10114714800,0.0061086523,-0.017104227,0.00061086525,10114714800,50.76953
10114723529,-1.0516455,-9.857233,0.32542387,10114723529,0.0067195175,-0.017715093,0.0012217305,10114723529,50.76953
10114732393,-1.0540384,-9.857233,0.3385844,10114732393,0.007330383,-0.017715093,0.00061086525,10114732393,50.722656
10114741244,-1.0576276,-9.864411,0.3290131,10114741244,0.0067195175,-0.016493361,0.00061086525,10114741244,50.722656
10114750092,-1.0612168,-9.865608,0.32422748,10114750092,0.007330383,-0.015882496,0.00061086525,10114750092,50.76172
10114758925,-1.0600204,-9.848858,0.34097722,10114758925,0.007330383,-0.016493361,0,10114758925,50.76172
10114767790,-1.0456635,-9.8632145,0.32422748,10114767790,0.007330383,-0.015882496,0.0012217305,10114767790,50.746094
10114776629,-1.0552348,-9.866804,0.33499518,10114776629,0.0067195175,-0.017715093,0.00061086525,10114776629,50.746094
10114785470,-1.0671989,-9.857233,0.33499518,10114785470,0.007330383,-0.017715093,0.00061086525,10114785470,50.75
10114794314,-1.0612168,-9.868001,0.31106696,10114794314,0.007330383,-0.016493361,0.00061086525,10114794314,50.75
10114803181,-1.0612168,-9.858429,0.3290131,10114803181,0.007941248,-0.017104227,0.0012217305,10114803181,50.757812
10114812025,-1.0588241,-9.857233,0.33260235,10114812025,0.0067195175,-0.017104227,0.00061086525,10114812025,50.757812
10114820863,-1.0648061,-9.860822,0.3290131,10114820863,0.005497787,-0.015882496,0.0012217305,10114820863,50.757812
10114829730,-1.0636097,-9.856036,0.32422748,10114829730,0.005497787,-0.015271631,0,10114829730,50.757812
10114838565,-1.0588241,-9.857233,0.3290131,10114838565,0.007330383,-0.015882496,0,10114838565,50.757812
10114847415,-1.0612168,-9.856036,0.33499518,10114847415,0.0067195175,-0.016493361,0,10114847415,50.757812
10114856266,-1.0648061,-9.864411,0.33140594,10114856266,0.0067195175,-0.015882496,0.0012217305,10114856266,50.742188
10114865125,-1.0600204,-9.864411,0.3278167,10114865125,0.008552114,-0.014660766,0.00061086525,10114865125,50.742188
10114873969,-1.0671989,-9.8632145,0.32422748,10114873969,0.009162978,-0.014660766,0.0012217305,10114873969,50.76953
10114882809,-1.0576276,-9.862019,0.33260235,10114882809,0.007941248,-0.015882496,0.0018325958,10114882809,50.76953
10114891658,-1.0671989,-9.85484,0.33379877,10114891658,0.007941248,-0.016493361,0.0018325958,10114891658,50.757812
10114900510,-1.0564312,-9.864411,0.35174492,10114900510,0.007941248,-0.015882496,0.00061086525,10114900510,50.757812
10114909363,-1.0600204,-9.864411,0.34337005,10114909363,0.0067195175,-0.017104227,0.0012217305,10114909363,50.753906
10114918208,-1.0576276,-9.860822,0.3361916,10114918208,0.007330383,-0.015882496,0,10114918208,50.753906
10114927056,-1.0636097,-9.85484,0.33379877,10114927056,0.008552114,-0.014660766,0.00061086525,10114927056,50.76172
10114935910,-1.0588241,-9.860822,0.3385844,10114935910,0.007330383,-0.015271631,0.00061086525,10114935910,50.76172
10114944754,-1.0624132,-9.8632145,0.34217364,10114944754,0.007330383,-0.015882496,0.0012217305,10114944754,50.773438
10114953618,-1.0671989,-9.865608,0.35174492,10114953618,0.007941248,-0.015882496,0.0012217305,10114953618,50.773438
10114962455,-1.0731809,-9.8632145,0.3481557,10114962455,0.007941248,-0.017104227,0.00061086525,10114962455,50.789062
10114971301,-1.0624132,-9.859626,0.34337005,10114971301,0.008552114,-0.016493361,0,10114971301,50.789062
10114980162,-1.0624132,-9.864411,0.3493521,10114980162,0.007941248,-0.017104227,0.0012217305,10114980162,50.757812
10114989012,-1.0588241,-9.8632145,0.34337005,10114989012,0.007941248,-0.016493361,0.0018325958,10114989012,50.757812
10114997862,-1.0612168,-9.862019,0.35653058,10114997862,0.007330383,-0.017104227,0.00061086525,10114997862,50.765625
10115006708,-1.0624132,-9.859626,0.34217364,10115006708,0.0061086523,-0.017104227,0,10115006708,50.765625
10115015560,-1.0636097,-9.859626,0.3481557,10115015560,0.007330383,-0.016493361,0.00061086525,10115015560,50.746094
10115024403,-1.0588241,-9.858429,0.34576288,10115024403,0.007330383,-0.017104227,0.00061086525,10115024403,50.746094
10115033239,-1.0600204,-9.860822,0.34217364,10115033239,0.007330383,-0.017715093,0.00061086525,10115033239,50.76953
10115042096,-1.0695918,-9.8632145,0.3481557,10115042096,0.007941248,-0.017104227,0.00061086525,10115042096,50.76953
10115050957,-1.0683953,-9.860822,0.35174492,10115050957,0.008552114,-0.017104227,0.00061086525,10115050957,50.746094
10115059800,-1.0636097,-9.857233,0.3493521,10115059800,0.0061086523,-0.015882496,0.00061086525,10115059800,50.746094
10115068643,-1.0612168,-9.858429,0.33499518,10115068643,0.007941248,-0.017104227,0.00061086525,10115068643,50.76953
10115077496,-1.0624132,-9.868001,0.35294133,10115077496,0.007941248,-0.017715093,0,10115077496,50.76953
10115086347,-1.0564312,-9.869197,0.33738798,10115086347,0.0067195175,-0.018325957,0.0012217305,10115086347,50.73828
10115095200,-1.0636097,-9.858429,0.34217364,10115095200,0.0067195175,-0.017715093,0.00061086525,10115095200,50.73828
10115104044,-1.0588241,-9.857233,0.33499518,10115104044,0.007330383,-0.018325957,0.00061086525,10115104044,50.75
10115112883,-1.0516455,-9.859626,0.34337005,10115112883,0.007330383,-0.017104227,0,10115112883,50.75
10115121734,-1.0648061,-9.857233,0.34097722,10115121734,0.007330383,-0.016493361,0.00061086525,10115121734,50.777344
10115130585,-1.0636097,-9.859626,0.3397808,10115130585,0.007330383,-0.017104227,0.0018325958,10115130585,50.777344
10115139442,-1.0636097,-9.862019,0.3278167,10115139442,0.007330383,-0.017104227,0.0012217305,10115139442,50.773438
10115148283,-1.0683953,-9.8632145,0.3469593,10115148283,0.007330383,-0.017104227,0,10115148283,50.773438
10115157131,-1.0648061,-9.862019,0.3361916,10115157131,0.007941248,-0.017715093,0.0012217305,10115157131,50.757812
10115165982,-1.0648061,-9.857233,0.32662028,10115165982,0.007941248,-0.015882496,0.0012217305,10115165982,50.757812
10115174840,-1.0671989,-9.862019,0.32542387,10115174840,0.007941248,-0.017104227,0.00061086525,10115174840,50.73828
10115183683,-1.0612168,-9.851251,0.32542387,10115183683,0.007941248,-0.017104227,0.00061086525,10115183683,50.73828
10115192534,-1.0576276,-9.862019,0.33260235,10115192534,0.007941248,-0.016493361,0.00061086525,10115192534,50.742188
10115201368,-1.052842,-9.8632145,0.33379877,10115201368,0.007941248,-0.016493361,0.0018325958,10115201368,50.742188
10115210236,-1.0707881,-9.864411,0.33499518,10115210236,0.008552114,-0.017715093,0.0012217305,10115210236,50.757812
10115219078,-1.0552348,-9.862019,0.3385844,10115219078,0.007330383,-0.016493361,0.0018325958,10115219078,50.757812
10115227921,-1.0504491,-9.860822,0.33260235,10115227921,0.0067195175,-0.017104227,0.0012217305,10115227921,50.75
10115236776,-1.0564312,-9.862019,0.3278167,10115236776,0.007941248,-0.016493361,0.0018325958,10115236776,50.75
10115245622,-1.0683953,-9.856036,0.3290131,10115245622,0.007941248,-0.015882496,0.00061086525,10115245622,50.757812
10115254466,-1.0695918,-9.856036,0.33140594,10115254466,0.008552114,-0.016493361,0.0012217305,10115254466,50.757812
10115263325,-1.0648061,-9.860822,0.33379877,10115263325,0.008552114,-0.016493361,0.0018325958,10115263325,50.75
10115272166,-1.0660025,-9.862019,0.33260235,10115272166,0.007330383,-0.015882496,0.00061086525,10115272166,50.75
10115281022,-1.0624132,-9.857233,0.32422748,10115281022,0.0061086523,-0.016493361,0.00061086525,10115281022,50.76172
10115289858,-1.0624132,-9.868001,0.32183465,10115289858,0.0067195175,-0.016493361,0.00061086525,10115289858,50.76172
10115298716,-1.0576276,-9.859626,0.33020952,10115298716,0.007330383,-0.015882496,0.00061086525,10115298716,50.765625
10115307581,-1.0516455,-9.857233,0.33738798,10115307581,0.0067195175,-0.015882496,0.0012217305,10115307581,50.765625
10115316423,-1.0576276,-9.859626,0.34097722,10115316423,0.0067195175,-0.015882496,0.0012217305,10115316423,50.746094
10115325260,-1.0600204,-9.851251,0.33379877,10115325260,0.0061086523,-0.014660766,0.0018325958,10115325260,50.746094
10115334104,-1.0648061,-9.858429,0.33379877,10115334104,0.0061086523,-0.015882496,0.0012217305,10115334104,50.76172
10115342967,-1.0695918,-9.868001,0.3361916,10115342967,0.007941248,-0.014660766,0.00061086525,10115342967,50.76172
10115351801,-1.0755738,-9.859626,0.33260235,10115351801,0.007330383,-0.015882496,0.00061086525,10115351801,50.753906
10115360659,-1.0588241,-9.857233,0.33020952,10115360659,0.0067195175,-0.015271631,0.00061086525,10115360659,50.753906
10115369519,-1.0671989,-9.864411,0.34456646,10115369519,0.007330383,-0.016493361,0,10115369519,50.757812
10115378355,-1.0600204,-9.8632145,0.34217364,10115378355,0.008552114,-0.016493361,0.0012217305,10115378355,50.757812
10115387209,-1.0552348,-9.853643,0.36131623,10115387209,0.007330383,-0.017104227,0.00061086525,10115387209,50.777344
10115396061,-1.0636097,-9.860822,0.34456646,10115396061,0.0067195175,-0.016493361,0.00061086525,10115396061,50.777344
10115404902,-1.0588241,-9.860822,0.34456646,10115404902,0.007330383,-0.017104227,0.0012217305,10115404902,50.757812
10115413746,-1.0576276,-9.865608,0.34456646,10115413746,0.007330383,-0.015271631,0.0018325958,10115413746,50.757812
10115422595,-1.0648061,-9.857233,0.3481557,10115422595,0.0067195175,-0.015882496,0.0012217305,10115422595,50.73047
10115431445,-1.0576276,-9.857233,0.3481557,10115431445,0.007941248,-0.015271631,0.0012217305,10115431445,50.73047
10115440307,-1.0648061,-9.858429,0.34217364,10115440307,0.007330383,-0.015882496,0.00061086525,10115440307,50.777344
10115449158,-1.0671989,-9.866804,0.34576288,10115449158,0.0067195175,-0.016493361,0.00061086525,10115449158,50.777344
10115458012,-1.0660025,-9.869197,0.3397808,10115458012,0.007941248,-0.017104227,0.0012217305,10115458012,50.765625
10115466842,-1.0588241,-9.858429,0.3469593,10115466842,0.0067195175,-0.014660766,0,10115466842,50.765625
10115475692,-1.0540384,-9.858429,0.34217364,10115475692,0.004886922,-0.016493361,-0.00061086525,10115475692,50.765625
10115484536,-1.0576276,-9.866804,0.3505485,10115484536,0.007330383,-0.017715093,0,10115484536,50.765625
10115493386,-1.0636097,-9.844072,0.34097722,10115493386,0.008552114,-0.016493361,0,10115493386,50.78125
10115502240,-1.0552348,-9.858429,0.34217364,10115502240,0.007330383,-0.015271631,0,10115502240,50.78125
10115511094,-1.0671989,-9.858429,0.3469593,10115511094,0.007330383,-0.016493361,0.00061086525,10115511094,50.73828
10115519932,-1.0671989,-9.856036,0.34097722,10115519932,0.008552114,-0.017104227,0,10115519932,50.73828
10115528791,-1.052842,-9.862019,0.3505485,10115528791,0.007330383,-0.016493361,0.0012217305,10115528791,50.742188
10115537652,-1.0564312,-9.857233,0.34097722,10115537652,0.007330383,-0.017104227,0.0012217305,10115537652,50.742188
10115546488,-1.0671989,-9.856036,0.35533416,10115546488,0.007941248,-0.015271631,0.0018325958,10115546488,50.76172
10115555342,-1.0612168,-9.858429,0.34576288,10115555342,0.0067195175,-0.017104227,0.0012217305,10115555342,50.76172
10115564186,-1.0707881,-9.857233,0.3361916,10115564186,0.007330383,-0.018325957,0.0018325958,10115564186,50.73828
10115573038,-1.0588241,-9.8632145,0.33260235,10115573038,0.007330383,-0.016493361,0.0012217305,10115573038,50.73828
10115581889,-1.0564312,-9.869197,0.33499518,10115581889,0.007330383,-0.017104227,0.0012217305,10115581889,50.75
10115590739,-1.0624132,-9.860822,0.3469593,10115590739,0.0067195175,-0.016493361,0.0012217305,10115590739,50.75
10115599596,-1.0564312,-9.862019,0.3493521,10115599596,0.0067195175,-0.017715093,0.0018325958,10115599596,50.757812
10115608438,-1.0540384,-9.858429,0.3493521,10115608438,0.0067195175,-0.016493361,0.0012217305,10115608438,50.757812
10115617289,-1.0576276,-9.856036,0.34217364,10115617289,0.007330383,-0.017715093,0.00061086525,10115617289,50.76953
10115626131,-1.0456635,-9.853643,0.33738798,10115626131,0.0061086523,-0.016493361,0.0012217305,10115626131,50.76953
10115634985,-1.0624132,-9.858429,0.33499518,10115634985,0.007330383,-0.017104227,0.0012217305,10115634985,50.773438
10115643828,-1.0564312,-9.8524475,0.33499518,10115643828,0.0067195175,-0.016493361,0.0012217305,10115643828,50.773438
10115652676,-1.0683953,-9.862019,0.33140594,10115652676,0.0067195175,-0.018325957,0.00061086525,10115652676,50.773438
10115661530,-1.0624132,-9.857233,0.33020952,10115661530,0.005497787,-0.016493361,0.0012217305,10115661530,50.773438
10115670378,-1.0600204,-9.860822,0.3361916,10115670378,0.0061086523,-0.017715093,0,10115670378,50.746094
10115679222,-1.0600204,-9.8632145,0.33379877,10115679222,0.007941248,-0.017104227,0.0012217305,10115679222,50.746094
10115688083,-1.0624132,-9.857233,0.32063824,10115688083,0.007941248,-0.015882496,0.00061086525,10115688083,50.76172
10115696924,-1.0576276,-9.8632145,0.33020952,10115696924,0.0067195175,-0.015882496,0.0018325958,10115696924,50.76172
10115705769,-1.0624132,-9.862019,0.3278167,10115705769,0.007941248,-0.016493361,0.0012217305,10115705769,50.757812
10115714800,-1.0480564,-9.862019,0.32303107,10115714800,0.0067195175,-0.016493361,0.00061086525,10115714800,50.757812
10115723460,-1.0588241,-9.851251,0.3290131,10115723460,0.0067195175,-0.016493361,0.0012217305,10115723460,50.773438
10115732309,-1.0492527,-9.8632145,0.3290131,10115732309,0.0061086523,-0.017104227,0.0012217305,10115732309,50.773438
10115741156,-1.0600204,-9.8632145,0.32183465,10115741156,0.007941248,-0.016493361,0.002443461,10115741156,50.73828
10115750013,-1.0564312,-9.857233,0.3397808,10115750013,0.005497787,-0.015271631,0.00061086525,10115750013,50.73828
10115758875,-1.0624132,-9.860822,0.32183465,10115758875,0.0061086523,-0.015882496,0.0012217305,10115758875,50.76172
10115767715,-1.0600204,-9.8524475,0.33260235,10115767715,0.007941248,-0.015882496,0.0012217305,10115767715,50.76172
10115776562,-1.0660025,-9.858429,0.33738798,10115776562,0.0067195175,-0.014660766,0.00061086525,10115776562,50.773438
10115785423,-1.0683953,-9.857233,0.33738798,10115785423,0.0067195175,-0.016493361,0.0018325958,10115785423,50.773438
10115794267,-1.0612168,-9.853643,0.3397808,10115794267,0.007330383,-0.017715093,0.0018325958,10115794267,50.753906
10115803106,-1.0636097,-9.869197,0.3385844,10115803106,0.007330383,-0.017715093,0.0012217305,10115803106,50.753906
10115811957,-1.0516455,-9.860822,0.33738798,10115811957,0.0067195175,-0.016493361,0,10115811957,50.75
10115820811,-1.0660025,-9.862019,0.33260235,10115820811,0.007330383,-0.016493361,0.00061086525,10115820811,50.75
10115829657,-1.0648061,-9.862019,0.34217364,10115829657,0.007941248,-0.016493361,0.0018325958,10115829657,50.734375
10115838503,-1.0636097,-9.859626,0.34337005,10115838503,0.007330383,-0.016493361,0.00061086525,10115838503,50.734375
10115847359,-1.0600204,-9.853643,0.3397808,10115847359,0.008552114,-0.015271631,0.0012217305,10115847359,50.76172
10115856211,-1.0576276,-9.857233,0.33738798,10115856211,0.007941248,-0.014660766,0.0012217305,10115856211,50.76172
10115865055,-1.0576276,-9.8632145,0.34217364,10115865055,0.007941248,-0.015271631,0.00061086525,10115865055,50.746094
10115873899,-1.0648061,-9.858429,0.34576288,10115873899,0.007330383,-0.015271631,0.00061086525,10115873899,50.746094
10115882750,-1.0612168,-9.865608,0.34337005,10115882750,0.0067195175,-0.015271631,0.0012217305,10115882750,50.757812
10115891607,-1.0660025,-9.864411,0.3493521,10115891607,0.0067195175,-0.014660766,0.0018325958,10115891607,50.757812
10115900448,-1.0624132,-9.858429,0.34097722,10115900448,0.007330383,-0.016493361,0.00061086525,10115900448,50.734375
10115909307,-1.0612168,-9.866804,0.3397808,10115909307,0.0067195175,-0.017104227,0.00061086525,10115909307,50.734375
10115918144,-1.0636097,-9.865608,0.34097722,10115918144,0.007941248,-0.017104227,0.0012217305,10115918144,50.734375
10115927002,-1.0707881,-9.866804,0.34576288,10115927002,0.007941248,-0.015271631,0.0012217305,10115927002,50.734375
10115935841,-1.0660025,-9.868001,0.35294133,10115935841,0.0067195175,-0.016493361,0.00061086525,10115935841,50.76172
10115944814,-1.0695918,-9.857233,0.357727,10115944814,0.0067195175,-0.016493361,0,10115944814,50.76172
10115953543,-1.0755738,-9.860822,0.35174492,10115953543,0.007330383,-0.017104227,0.0012217305,10115953543,50.789062
10115962397,-1.0695918,-9.853643,0.35653058,10115962397,0.007941248,-0.017104227,0.0012217305,10115962397,50.789062
10115971231,-1.0612168,-9.8632145,0.33379877,10115971231,0.005497787,-0.016493361,0.0018325958,10115971231,50.753906
10115980096,-1.0660025,-9.857233,0.3469593,10115980096,0.0067195175,-0.016493361,0.0012217305,10115980096,50.753906
10115988931,-1.0588241,-9.860822,0.34097722,10115988931,0.0067195175,-0.017715093,0.0012217305,10115988931,50.76953
10115997784,-1.0671989,-9.860822,0.3505485,10115997784,0.0061086523,-0.018325957,0.0012217305,10115997784,50.76953
10116006644,-1.0552348,-9.858429,0.3481557,10116006644,0.007330383,-0.017104227,0.0012217305,10116006644,50.746094
10116015403,-1.0624132,-9.857233,0.3481557,10116015403,0.008552114,-0.016493361,0.0012217305,10116015403,50.746094
10116024247,-1.0671989,-9.864411,0.34576288,10116024247,0.007330383,-0.017715093,0.00061086525,10116024247,50.76172
10116033183,-1.0636097,-9.8632145,0.33738798,10116033183,0.007330383,-0.015882496,0.00061086525,10116033183,50.76172
10116042026,-1.0600204,-9.8632145,0.33738798,10116042026,0.007941248,-0.015882496,0.00061086525,10116042026,50.757812
10116050888,-1.052842,-9.868001,0.3385844,10116050888,0.007330383,-0.015882496,0,10116050888,50.757812
10116059731,-1.0671989,-9.868001,0.33738798,10116059731,0.0067195175,-0.016493361,0.00061086525,10116059731,50.73828
10116068573,-1.0540384,-9.862019,0.34097722,10116068573,0.007941248,-0.015882496,0.00061086525,10116068573,50.73828
10116077430,-1.0600204,-9.8524475,0.3361916,10116077430,0.007330383,-0.017104227,0,10116077430,50.757812
10116086281,-1.0624132,-9.865608,0.3397808,10116086281,0.0061086523,-0.015882496,0.0012217305,10116086281,50.757812
10116095129,-1.0660025,-9.865608,0.34456646,10116095129,0.0067195175,-0.016493361,0.0012217305,10116095129,50.76172
10116103973,-1.0600204,-9.865608,0.33499518,10116103973,0.0067195175,-0.016493361,0.00061086525,10116103973,50.76172
10116112818,-1.0671989,-9.859626,0.3361916,10116112818,0.0067195175,-0.015882496,0,10116112818,50.73828
10116121663,-1.0588241,-9.858429,0.33379877,10116121663,0.008552114,-0.017104227,0.0018325958,10116121663,50.73828
10116130527,-1.0612168,-9.857233,0.33140594,10116130527,0.007330383,-0.017104227,0.0012217305,10116130527,50.76172
10116139361,-1.0624132,-9.865608,0.32422748,10116139361,0.007941248,-0.017104227,0,10116139361,50.76172
10116148225,-1.052842,-9.858429,0.3290131,10116148225,0.0061086523,-0.017104227,0,10116148225,50.757812
10116157075,-1.0540384,-9.858429,0.33379877,10116157075,0.007330383,-0.017104227,0.00061086525,10116157075,50.757812
10116165924,-1.0564312,-9.853643,0.33260235,10116165924,0.008552114,-0.016493361,0.0012217305,10116165924,50.773438
10116174922,-1.0564312,-9.859626,0.33499518,10116174922,0.0067195175,-0.017104227,0,10116174922,50.773438
10116183605,-1.0660025,-9.860822,0.33020952,10116183605,0.007330383,-0.016493361,0.0012217305,10116183605,50.757812
10116192476,-1.0612168,-9.8524475,0.33140594,10116192476,0.007330383,-0.016493361,0.0012217305,10116192476,50.757812
10116201310,-1.0683953,-9.857233,0.33260235,10116201310,0.0067195175,-0.015882496,0.0012217305,10116201310,50.753906
10116210161,-1.0588241,-9.865608,0.3290131,10116210161,0.0067195175,-0.015271631,0.0012217305,10116210161,50.753906
10116219002,-1.0504491,-9.858429,0.3290131,10116219002,0.007941248,-0.015271631,0.0012217305,10116219002,50.785156
10116227858,-1.0612168,-9.862019,0.34217364,10116227858,0.008552114,-0.015271631,0.0018325958,10116227858,50.785156
10116236703,-1.0719845,-9.866804,0.33140594,10116236703,0.008552114,-0.014049901,0.00061086525,10116236703,50.753906
10116245551,-1.0648061,-9.866804,0.3397808,10116245551,0.008552114,-0.016493361,0.00061086525,10116245551,50.753906
10116254395,-1.0564312,-9.860822,0.33260235,10116254395,0.008552114,-0.015882496,0.0012217305,10116254395,50.742188
10116263255,-1.0648061,-9.864411,0.33738798,10116263255,0.008552114,-0.017104227,0.0012217305,10116263255,50.742188
10116272107,-1.0516455,-9.866804,0.33020952,10116272107,0.009162978,-0.015882496,0,10116272107,50.742188
10116280966,-1.0636097,-9.862019,0.33140594,10116280966,0.008552114,-0.016493361,0.00061086525,10116280966,50.742188
10116289793,-1.0648061,-9.856036,0.3385844,10116289793,0.007330383,-0.015882496,0.0018325958,10116289793,50.76172
10116298663,-1.0552348,-9.862019,0.33499518,10116298663,0.007941248,-0.015882496,0.0012217305,10116298663,50.76172
10116307512,-1.0540384,-9.851251,0.35294133,10116307512,0.009773844,-0.015271631,0.0018325958,10116307512,50.765625
10116316343,-1.0540384,-9.857233,0.34097722,10116316343,0.008552114,-0.014049901,0.00061086525,10116316343,50.765625
10116325192,-1.0600204,-9.860822,0.3278167,10116325192,0.008552114,-0.015271631,0.0012217305,10116325192,50.773438
10116334036,-1.0588241,-9.85484,0.33499518,10116334036,0.007941248,-0.017104227,0.00061086525,10116334036,50.773438
10116342905,-1.0612168,-9.859626,0.34337005,10116342905,0.0067195175,-0.015882496,0.00061086525,10116342905,50.765625
10116351745,-1.0564312,-9.865608,0.34097722,10116351745,0.0067195175,-0.015882496,0,10116351745,50.765625
10116360606,-1.0671989,-9.860822,0.34456646,10116360606,0.007330383,-0.016493361,0.00061086525,10116360606,50.765625
10116369441,-1.0743774,-9.851251,0.34217364,10116369441,0.008552114,-0.016493361,0.00061086525,10116369441,50.765625
10116378289,-1.0624132,-9.85484,0.33738798,10116378289,0.007330383,-0.015882496,0.0012217305,10116378289,50.765625
10116387150,-1.0624132,-9.85484,0.34337005,10116387150,0.007330383,-0.017715093,0,10116387150,50.765625
10116395986,-1.0588241,-9.85484,0.34576288,10116395986,0.007941248,-0.018325957,0,10116395986,50.73828
10116404836,-1.0600204,-9.8524475,0.34456646,10116404836,0.0067195175,-0.018325957,0,10116404836,50.73828
10116413679,-1.0588241,-9.866804,0.34217364,10116413679,0.0061086523,-0.015271631,0.00061086525,10116413679,50.742188
10116422545,-1.0636097,-9.859626,0.34217364,10116422545,0.007330383,-0.015882496,0.0012217305,10116422545,50.742188
10116431382,-1.0588241,-9.859626,0.3469593,10116431382,0.007330383,-0.017104227,0.0012217305,10116431382,50.757812
10116440226,-1.0576276,-9.856036,0.34097722,10116440226,0.0067195175,-0.017104227,0,10116440226,50.757812
10116449075,-1.0648061,-9.847662,0.34217364,10116449075,0.007941248,-0.017715093,0.00061086525,10116449075,50.76172
10116457924,-1.0552348,-9.865608,0.34576288,10116457924,0.007330383,-0.016493361,0,10116457924,50.76172
10116466791,-1.0636097,-9.866804,0.34217364,10116466791,0.007330383,-0.017104227,0.0012217305,10116466791,50.746094
10116475647,-1.0660025,-9.859626,0.34337005,10116475647,0.007941248,-0.017104227,0.0012217305,10116475647,50.746094
10116484491,-1.0648061,-9.864411,0.34217364,10116484491,0.0067195175,-0.017104227,0.0012217305,10116484491,50.734375
10116493327,-1.0564312,-9.864411,0.33260235,10116493327,0.007330383,-0.016493361,0.00061086525,10116493327,50.734375
10116502174,-1.0480564,-9.865608,0.3481557,10116502174,0.005497787,-0.017104227,0.00061086525,10116502174,50.742188
10116511033,-1.0624132,-9.858429,0.3469593,10116511033,0.0067195175,-0.017104227,0.00061086525,10116511033,50.742188
10116519881,-1.0707881,-9.85484,0.34097722,10116519881,0.0067195175,-0.016493361,0.0012217305,10116519881,50.76953
10116528739,-1.0636097,-9.857233,0.34576288,10116528739,0.007330383,-0.015882496,0.00061086525,10116528739,50.76953
10116537573,-1.0660025,-9.859626,0.33499518,10116537573,0.007941248,-0.017104227,0.0012217305,10116537573,50.757812
10116546426,-1.0624132,-9.858429,0.3361916,10116546426,0.007330383,-0.017715093,0.0012217305,10116546426,50.757812
10116555282,-1.0564312,-9.859626,0.33499518,10116555282,0.0067195175,-0.016493361,0.00061086525,10116555282,50.73047
10116564126,-1.0600204,-9.865608,0.33140594,10116564126,0.0061086523,-0.017104227,0.00061086525,10116564126,50.73047
10116572981,-1.0588241,-9.859626,0.3385844,10116572981,0.007941248,-0.018936822,0.00061086525,10116572981,50.76953
10116581805,-1.0516455,-9.8632145,0.33499518,10116581805,0.007941248,-0.018936822,0.00061086525,10116581805,50.76953
10116590668,-1.0504491,-9.859626,0.32303107,10116590668,0.0067195175,-0.017715093,0.00061086525,10116590668,50.757812
10116599519,-1.0624132,-9.859626,0.33260235,10116599519,0.007330383,-0.017715093,0.00061086525,10116599519,50.757812
10116608357,-1.0600204,-9.859626,0.33020952,10116608357,0.007330383,-0.015882496,0.0012217305,10116608357,50.753906
10116617213,-1.0648061,-9.864411,0.33260235,10116617213,0.005497787,-0.016493361,0.00061086525,10116617213,50.753906
10116626065,-1.0660025,-9.858429,0.32303107,10116626065,0.0067195175,-0.016493361,0.00061086525,10116626065,50.757812
10116634950,-1.0564312,-9.860822,0.3290131,10116634950,0.007941248,-0.016493361,0,10116634950,50.757812
10116643771,-1.0660025,-9.856036,0.32542387,10116643771,0.0067195175,-0.015271631,0,10116643771,50.777344
10116652605,-1.0636097,-9.858429,0.33140594,10116652605,0.005497787,-0.015882496,0.00061086525,10116652605,50.777344
10116661458,-1.0695918,-9.8524475,0.32422748,10116661458,0.007941248,-0.017715093,0.0012217305,10116661458,50.765625
10116670306,-1.0660025,-9.862019,0.33499518,10116670306,0.0061086523,-0.016493361,0.0012217305,10116670306,50.765625
10116679153,-1.0624132,-9.857233,0.32183465,10116679153,0.008552114,-0.016493361,0.0012217305,10116679153,50.765625
10116688013,-1.0588241,-9.859626,0.34217364,10116688013,0.007941248,-0.017104227,0.00061086525,10116688013,50.765625
10116696862,-1.0552348,-9.860822,0.3385844,10116696862,0.007941248,-0.017104227,0.0012217305,10116696862,50.78125
10116705702,-1.0660025,-9.865608,0.34576288,10116705702,0.008552114,-0.015882496,0.00061086525,10116705702,50.78125
10116714545,-1.0600204,-9.864411,0.3397808,10116714545,0.0061086523,-0.014660766,0.0018325958,10116714545,50.753906
10116723408,-1.0612168,-9.869197,0.33260235,10116723408,0.007941248,-0.015882496,0.0012217305,10116723408,50.753906
10116732242,-1.0588241,-9.862019,0.33140594,10116732242,0.007941248,-0.014049901,0.0012217305,10116732242,50.76172
10116741108,-1.0719845,-9.865608,0.32662028,10116741108,0.0067195175,-0.015271631,0.0012217305,10116741108,50.76172
10116749950,-1.0552348,-9.862019,0.3469593,10116749950,0.007941248,-0.015271631,0.0012217305,10116749950,50.757812
10116758806,-1.0648061,-9.847662,0.34097722,10116758806,0.0067195175,-0.015882496,0,10116758806,50.757812
10116767655,-1.0540384,-9.853643,0.34576288,10116767655,0.007330383,-0.015882496,0,10116767655,50.765625
10116776504,-1.0636097,-9.862019,0.35294133,10116776504,0.007941248,-0.015882496,0.00061086525,10116776504,50.765625
10116785339,-1.0600204,-9.862019,0.34576288,10116785339,0.007330383,-0.015271631,0.0012217305,10116785339,50.757812
10116794183,-1.0612168,-9.864411,0.3481557,10116794183,0.007330383,-0.015271631,0.0018325958,10116794183,50.757812
10116803036,-1.0624132,-9.848858,0.33738798,10116803036,0.0067195175,-0.017104227,0.0012217305,10116803036,50.753906
10116811889,-1.0707881,-9.8632145,0.32542387,10116811889,0.007330383,-0.015271631,0.0012217305,10116811889,50.753906
10116820737,-1.0671989,-9.858429,0.33020952,10116820737,0.0067195175,-0.015271631,0.00061086525,10116820737,50.76172
10116829587,-1.0695918,-9.859626,0.3469593,10116829587,0.007941248,-0.015882496,0.00061086525,10116829587,50.76172
10116838442,-1.0648061,-9.862019,0.35174492,10116838442,0.008552114,-0.014660766,0,10116838442,50.73828
10116847291,-1.0707881,-9.859626,0.34217364,10116847291,0.008552114,-0.015882496,0.0012217305,10116847291,50.73828
10116856134,-1.0683953,-9.858429,0.3505485,10116856134,0.0061086523,-0.014660766,0.00061086525,10116856134,50.742188
10116864995,-1.0576276,-9.860822,0.3589234,10116864995,0.007330383,-0.017715093,0,10116864995,50.742188
10116873838,-1.0648061,-9.853643,0.3469593,10116873838,0.007941248,-0.015882496,0.0012217305,10116873838,50.76953
10116882681,-1.0564312,-9.857233,0.3469593,10116882681,0.0067195175,-0.015271631,0.00061086525,10116882681,50.76953
10116891538,-1.0576276,-9.859626,0.35174492,10116891538,0.007330383,-0.016493361,0.00061086525,10116891538,50.753906
10116900380,-1.0516455,-9.862019,0.34576288,10116900380,0.007330383,-0.017715093,0.0012217305,10116900380,50.753906
10116909224,-1.0600204,-9.858429,0.35413775,10116909224,0.0061086523,-0.017715093,0.00061086525,10116909224,50.777344
10116918072,-1.0648061,-9.856036,0.3589234,10116918072,0.007941248,-0.016493361,0.0012217305,10116918072,50.777344
10116926922,-1.0588241,-9.8632145,0.35294133,10116926922,0.007330383,-0.016493361,0.0012217305,10116926922,50.757812
10116935787,-1.0600204,-9.866804,0.357727,10116935787,0.005497787,-0.017104227,0.00061086525,10116935787,50.757812
10116944776,-1.0612168,-9.857233,0.3385844,10116944776,0.007330383,-0.017715093,0,10116944776,50.753906
10116953482,-1.0624132,-9.864411,0.35294133,10116953482,0.008552114,-0.017104227,0.0012217305,10116953482,50.753906
10116962318,-1.0660025,-9.864411,0.3361916,10116962318,0.007330383,-0.017104227,0.00061086525,10116962318,50.71875
10116971175,-1.0719845,-9.858429,0.34217364,10116971175,0.007941248,-0.018325957,0.00061086525,10116971175,50.71875
10116980033,-1.0731809,-9.8632145,0.3278167,10116980033,0.007941248,-0.017104227,0.00061086525,10116980033,50.76953
10116988857,-1.0600204,-9.856036,0.3361916,10116988857,0.0067195175,-0.017104227,0.0012217305,10116988857,50.76953
10116997729,-1.0671989,-9.868001,0.34456646,10116997729,0.007330383,-0.017104227,0,10116997729,50.753906
10117006565,-1.0540384,-9.868001,0.34097722,10117006565,0.0067195175,-0.017104227,-0.00061086525,10117006565,50.753906
10117015434,-1.0624132,-9.862019,0.33020952,10117015434,0.007941248,-0.018325957,0,10117015434,50.757812
10117024278,-1.0636097,-9.868001,0.3290131,10117024278,0.0061086523,-0.017104227,0.0012217305,10117024278,50.757812
10117033116,-1.0492527,-9.858429,0.3397808,10117033116,0.0067195175,-0.018325957,0.0012217305,10117033116,50.785156
10117041967,-1.0588241,-9.870394,0.33140594,10117041967,0.0067195175,-0.017715093,0.0012217305,10117041967,50.785156
10117050810,-1.0683953,-9.864411,0.33379877,10117050810,0.007330383,-0.017104227,0.0012217305,10117050810,50.757812
10117059673,-1.0624132,-9.87159,0.33260235,10117059673,0.007330383,-0.017104227,0.0012217305,10117059673,50.757812
10117068514,-1.0612168,-9.8632145,0.34576288,10117068514,0.007330383,-0.015882496,0.0012217305,10117068514,50.765625
10117077370,-1.0600204,-9.859626,0.33140594,10117077370,0.0067195175,-0.016493361,0.00061086525,10117077370,50.765625
10117086222,-1.0648061,-9.865608,0.3290131,10117086222,0.008552114,-0.017104227,0.00061086525,10117086222,50.789062
10117095056,-1.0636097,-9.870394,0.33260235,10117095056,0.007941248,-0.016493361,0.0012217305,10117095056,50.789062
10117103900,-1.0588241,-9.8632145,0.3361916,10117103900,0.0067195175,-0.017104227,0.0012217305,10117103900,50.765625
10117112761,-1.0588241,-9.860822,0.34217364,10117112761,0.008552114,-0.017104227,0.0012217305,10117112761,50.765625
10117121609,-1.0540384,-9.857233,0.33260235,10117121609,0.007941248,-0.017715093,0.0012217305,10117121609,50.753906
10117130456,-1.0612168,-9.859626,0.33738798,10117130456,0.007330383,-0.017104227,0.00061086525,10117130456,50.753906
10117139305,-1.0707881,-9.851251,0.33379877,10117139305,0.0061086523,-0.017715093,0.00061086525,10117139305,50.76953
10117148159,-1.0671989,-9.865608,0.33260235,10117148159,0.0067195175,-0.017104227,0.00061086525,10117148159,50.76953
10117157000,-1.0624132,-9.860822,0.33379877,10117157000,0.0067195175,-0.016493361,0.00061086525,10117157000,50.789062
10117165852,-1.0683953,-9.864411,0.33379877,10117165852,0.0067195175,-0.016493361,0.00061086525,10117165852,50.789062
10117174696,-1.0564312,-9.858429,0.34097722,10117174696,0.007330383,-0.017715093,0.0012217305,10117174696,50.753906
10117183559,-1.0588241,-9.858429,0.32662028,10117183559,0.0067195175,-0.018325957,0.0012217305,10117183559,50.753906
10117192409,-1.0624132,-9.870394,0.32662028,10117192409,0.007330383,-0.016493361,0.0012217305,10117192409,50.76172
10117201245,-1.0624132,-9.868001,0.3290131,10117201245,0.007941248,-0.017104227,0.0012217305,10117201245,50.76172
10117210097,-1.0683953,-9.858429,0.3290131,10117210097,0.007330383,-0.014660766,0.0012217305,10117210097,50.757812
10117218941,-1.0624132,-9.851251,0.34097722,10117218941,0.007941248,-0.015882496,0.00061086525,10117218941,50.757812
10117227794,-1.0660025,-9.857233,0.33738798,10117227794,0.008552114,-0.015882496,0.00061086525,10117227794,50.78125
10117236646,-1.0648061,-9.859626,0.33738798,10117236646,0.008552114,-0.016493361,0,10117236646,50.78125
10117245494,-1.0612168,-9.856036,0.3385844,10117245494,0.007330383,-0.014660766,0.0012217305,10117245494,50.765625
10117254338,-1.0576276,-9.8632145,0.35174492,10117254338,0.007330383,-0.015882496,0.0012217305,10117254338,50.765625
10117263186,-1.0660025,-9.864411,0.3469593,10117263186,0.007330383,-0.015271631,0.0018325958,10117263186,50.73047
10117272029,-1.052842,-9.8632145,0.3493521,10117272029,0.009773844,-0.016493361,0.00061086525,10117272029,50.73047
10117280885,-1.0576276,-9.8632145,0.3397808,10117280885,0.007330383,-0.015882496,0,10117280885,50.75
10117289748,-1.0576276,-9.865608,0.3493521,10117289748,0.007941248,-0.015882496,0.00061086525,10117289748,50.75
10117298580,-1.0671989,-9.858429,0.35294133,10117298580,0.008552114,-0.017104227,0.0012217305,10117298580,50.76953
10117307433,-1.0707881,-9.8632145,0.3469593,10117307433,0.005497787,-0.016493361,0.00061086525,10117307433,50.76953
10117316278,-1.0576276,-9.856036,0.35174492,10117316278,0.0061086523,-0.015271631,0.0018325958,10117316278,50.746094
10117325128,-1.0648061,-9.869197,0.34576288,10117325128,0.007941248,-0.017104227,0.00061086525,10117325128,50.746094
10117333972,-1.0624132,-9.865608,0.3481557,10117333972,0.007330383,-0.015882496,0,10117333972,50.757812
10117342830,-1.0600204,-9.860822,0.3361916,10117342830,0.007941248,-0.016493361,0.0012217305,10117342830,50.757812
10117351678,-1.0648061,-9.860822,0.3385844,10117351678,0.007941248,-0.017104227,0.0012217305,10117351678,50.76172
10117360536,-1.0695918,-9.862019,0.34097722,10117360536,0.0067195175,-0.016493361,0.00061086525,10117360536,50.76172
10117369378,-1.0695918,-9.853643,0.33140594,10117369378,0.007941248,-0.017715093,0.00061086525,10117369378,50.757812
10117378213,-1.0636097,-9.858429,0.35294133,10117378213,0.008552114,-0.017104227,0.00061086525,10117378213,50.757812
10117387083,-1.0576276,-9.850055,0.34217364,10117387083,0.009162978,-0.016493361,0.00061086525,10117387083,50.757812
10117395933,-1.0624132,-9.865608,0.34217364,10117395933,0.007941248,-0.016493361,0.0012217305,10117395933,50.757812
10117404911,-1.0695918,-9.859626,0.34217364,10117404911,0.007330383,-0.015882496,0,10117404911,50.753906
10117413617,-1.0600204,-9.859626,0.3361916,10117413617,0.005497787,-0.016493361,0,10117413617,50.753906
10117422467,-1.0504491,-9.8727865,0.33738798,10117422467,0.005497787,-0.017104227,0.00061086525,10117422467,50.76172
10117431321,-1.0683953,-9.862019,0.33379877,10117431321,0.007330383,-0.016493361,0.00061086525,10117431321,50.76172
10117440183,-1.0648061,-9.868001,0.34456646,10117440183,0.0067195175,-0.016493361,0.0012217305,10117440183,50.773438
10117449014,-1.0648061,-9.85484,0.3481557,10117449014,0.0067195175,-0.017104227,0.0018325958,10117449014,50.773438
10117457866,-1.0600204,-9.856036,0.3469593,10117457866,0.007330383,-0.017104227,0.00061086525,10117457866,50.746094
10117466709,-1.0552348,-9.864411,0.3385844,10117466709,0.007330383,-0.017715093,0.0012217305,10117466709,50.746094
10117475566,-1.0612168,-9.85484,0.35174492,10117475566,0.0067195175,-0.017104227,0.0018325958,10117475566,50.76953
10117484410,-1.0648061,-9.864411,0.33140594,10117484410,0.007330383,-0.017715093,0.00061086525,10117484410,50.76953
10117493265,-1.0612168,-9.856036,0.34337005,10117493265,0.007330383,-0.017104227,0.00061086525,10117493265,50.765625
10117502113,-1.0707881,-9.859626,0.33499518,10117502113,0.0067195175,-0.017715093,0.0012217305,10117502113,50.765625
10117510969,-1.0648061,-9.856036,0.32542387,10117510969,0.005497787,-0.017104227,0.0012217305,10117510969,50.753906
10117519819,-1.0636097,-9.865608,0.33020952,10117519819,0.0061086523,-0.016493361,0.0012217305,10117519819,50.753906
10117528650,-1.0648061,-9.860822,0.33260235,10117528650,0.0067195175,-0.017104227,0.00061086525,10117528650,50.777344
10117537508,-1.0683953,-9.8632145,0.34337005,10117537508,0.007330383,-0.017715093,0.0012217305,10117537508,50.777344
10117546347,-1.0588241,-9.85484,0.34097722,10117546347,0.007330383,-0.018325957,0.0018325958,10117546347,50.765625
10117555205,-1.0648061,-9.8524475,0.33379877,10117555205,0.0061086523,-0.018325957,0.00061086525,10117555205,50.765625
10117564049,-1.0564312,-9.865608,0.3385844,10117564049,0.0067195175,-0.017104227,0,10117564049,50.757812
10117572908,-1.0588241,-9.858429,0.32662028,10117572908,0.0067195175,-0.018325957,0.0012217305,10117572908,50.757812
10117581745,-1.0564312,-9.853643,0.32303107,10117581745,0.0067195175,-0.017104227,0.00061086525,10117581745,50.773438
10117590614,-1.0671989,-9.869197,0.32303107,10117590614,0.0067195175,-0.017104227,0.0012217305,10117590614,50.773438
10117599444,-1.0683953,-9.864411,0.33260235,10117599444,0.007330383,-0.015882496,0.00061086525,10117599444,50.757812
10117608314,-1.0648061,-9.862019,0.33020952,10117608314,0.0061086523,-0.015271631,0.0012217305,10117608314,50.757812
10117617161,-1.0624132,-9.860822,0.34337005,10117617161,0.007941248,-0.015882496,0.0012217305,10117617161,50.773438
10117625994,-1.0600204,-9.860822,0.33260235,10117625994,0.007330383,-0.014660766,0.0012217305,10117625994,50.773438
10117634849,-1.0660025,-9.862019,0.34217364,10117634849,0.007941248,-0.015271631,0.0012217305,10117634849,50.73828
10117643692,-1.0612168,-9.860822,0.3278167,10117643692,0.007941248,-0.017104227,0.0012217305,10117643692,50.73828
10117652551,-1.0624132,-9.870394,0.34217364,10117652551,0.008552114,-0.016493361,0.0018325958,10117652551,50.734375
10117661386,-1.0516455,-9.8632145,0.34456646,10117661386,0.009162978,-0.015882496,0.0012217305,10117661386,50.734375
10117670248,-1.0660025,-9.862019,0.3290131,10117670248,0.0067195175,-0.015882496,0.0018325958,10117670248,50.76953
10117679101,-1.052842,-9.856036,0.33260235,10117679101,0.007330383,-0.016493361,0.002443461,10117679101,50.76953
10117687938,-1.0468599,-9.862019,0.3361916,10117687938,0.0067195175,-0.015882496,0.0018325958,10117687938,50.753906
10117696803,-1.0468599,-9.860822,0.34337005,10117696803,0.0067195175,-0.015271631,0.00061086525,10117696803,50.753906
10117705645,-1.0624132,-9.860822,0.33260235,10117705645,0.007941248,-0.017104227,0.0012217305,10117705645,50.76953
10117714489,-1.0564312,-9.862019,0.33260235,10117714489,0.009162978,-0.015882496,0.0012217305,10117714489,50.76953
10117723327,-1.0660025,-9.8632145,0.34576288,10117723327,0.008552114,-0.015271631,0.0018325958,10117723327,50.789062
10117732193,-1.0636097,-9.865608,0.3397808,10117732193,0.0067195175,-0.016493361,0.0012217305,10117732193,50.789062
10117741030,-1.0612168,-9.856036,0.34097722,10117741030,0.007330383,-0.017104227,0,10117741030,50.773438
10117749890,-1.0600204,-9.862019,0.34456646,10117749890,0.007330383,-0.016493361,0.0012217305,10117749890,50.773438
10117758741,-1.0636097,-9.85484,0.3385844,10117758741,0.0067195175,-0.016493361,0.0012217305,10117758741,50.796875
10117767575,-1.0671989,-9.8632145,0.3385844,10117767575,0.007330383,-0.018325957,0.00061086525,10117767575,50.796875
10117776425,-1.0695918,-9.859626,0.33140594,10117776425,0.007941248,-0.017715093,0.00061086525,10117776425,50.765625
10117785275,-1.0731809,-9.860822,0.33379877,10117785275,0.0061086523,-0.016493361,0.00061086525,10117785275,50.765625
10117794119,-1.0636097,-9.858429,0.3481557,10117794119,0.0067195175,-0.015271631,0.0012217305,10117794119,50.757812
10117802982,-1.0588241,-9.862019,0.35653058,10117802982,0.007330383,-0.017104227,0.00061086525,10117802982,50.757812
10117811834,-1.0660025,-9.8727865,0.34456646,10117811834,0.0061086523,-0.015882496,0.0012217305,10117811834,50.746094
10117820674,-1.0707881,-9.860822,0.34217364,10117820674,0.007941248,-0.016493361,0.00061086525,10117820674,50.746094
10117829523,-1.0671989,-9.870394,0.3361916,10117829523,0.007941248,-0.016493361,0.0012217305,10117829523,50.76953
10117838369,-1.0612168,-9.865608,0.33738798,10117838369,0.007941248,-0.016493361,0.0012217305,10117838369,50.76953
10117847224,-1.0624132,-9.856036,0.33499518,10117847224,0.007330383,-0.017104227,0.0012217305,10117847224,50.73047
10117856071,-1.0660025,-9.8632145,0.34337005,10117856071,0.007941248,-0.015882496,0.0012217305,10117856071,50.73047
10117864932,-1.0588241,-9.870394,0.34456646,10117864932,0.009773844,-0.017715093,0.0018325958,10117864932,50.76953
10117873775,-1.0671989,-9.870394,0.34337005,10117873775,0.007941248,-0.016493361,0.0012217305,10117873775,50.76953
10117882623,-1.0624132,-9.868001,0.3481557,10117882623,0.008552114,-0.017104227,0.0012217305,10117882623,50.765625
10117891474,-1.0612168,-9.860822,0.3385844,10117891474,0.0067195175,-0.017104227,0.0012217305,10117891474,50.765625
10117900318,-1.0600204,-9.865608,0.3385844,10117900318,0.007330383,-0.017715093,0.0012217305,10117900318,50.765625
10117909167,-1.0636097,-9.8632145,0.34217364,10117909167,0.007941248,-0.016493361,0.0018325958,10117909167,50.765625
10117918020,-1.0588241,-9.859626,0.34217364,10117918020,0.0067195175,-0.015271631,0.0012217305,10117918020,50.765625
10117926862,-1.0612168,-9.8632145,0.34097722,10117926862,0.007330383,-0.017104227,0.00061086525,10117926862,50.765625
10117935710,-1.0719845,-9.858429,0.33140594,10117935710,0.008552114,-0.017104227,0.0018325958,10117935710,50.765625
10117944554,-1.0588241,-9.860822,0.33260235,10117944554,0.0061086523,-0.017104227,0.0012217305,10117944554,50.765625
10117953408,-1.0516455,-9.862019,0.34576288,10117953408,0.008552114,-0.018325957,0.00061086525,10117953408,50.765625
10117962252,-1.0600204,-9.865608,0.3397808,10117962252,0.007941248,-0.017715093,0.0012217305,10117962252,50.765625
10117971101,-1.0624132,-9.859626,0.34097722,10117971101,0.008552114,-0.017104227,0.00061086525,10117971101,50.78125
10117979954,-1.0624132,-9.862019,0.3397808,10117979954,0.007330383,-0.017715093,0.00061086525,10117979954,50.78125
10117988799,-1.0600204,-9.850055,0.32542387,10117988799,0.0067195175,-0.017715093,0.0012217305,10117988799,50.757812
10117997650,-1.0624132,-9.859626,0.3290131,10117997650,0.007941248,-0.017715093,0.00061086525,10117997650,50.757812
10118006502,-1.0480564,-9.859626,0.33738798,10118006502,0.0067195175,-0.016493361,0.0012217305,10118006502,50.757812
10118015352,-1.0648061,-9.860822,0.33738798,10118015352,0.007941248,-0.015882496,0.0012217305,10118015352,50.757812
10118024196,-1.0624132,-9.858429,0.32662028,10118024196,0.009162978,-0.016493361,0,10118024196,50.765625
10118033043,-1.0552348,-9.856036,0.33020952,10118033043,0.0067195175,-0.017715093,0.00061086525,10118033043,50.765625
10118041900,-1.0636097,-9.857233,0.32662028,10118041900,0.007941248,-0.016493361,0.0012217305,10118041900,50.796875
10118050754,-1.052842,-9.865608,0.3278167,10118050754,0.007941248,-0.016493361,0.0012217305,10118050754,50.796875
10118059597,-1.0576276,-9.866804,0.3290131,10118059597,0.0061086523,-0.016493361,0,10118059597,50.773438
10118068457,-1.0600204,-9.865608,0.33140594,10118068457,0.007330383,-0.017104227,0.0012217305,10118068457,50.773438
10118077310,-1.0612168,-9.859626,0.3361916,10118077310,0.007941248,-0.016493361,0.0012217305,10118077310,50.753906
10118086143,-1.0588241,-9.8632145,0.32662028,10118086143,0.0067195175,-0.015271631,0.00061086525,10118086143,50.753906
10118094999,-1.0624132,-9.856036,0.3290131,10118094999,0.007330383,-0.015882496,0.0012217305,10118094999,50.726562
10118103843,-1.0600204,-9.859626,0.3361916,10118103843,0.007330383,-0.015882496,0.00061086525,10118103843,50.726562
10118112689,-1.0671989,-9.858429,0.34217364,10118112689,0.0061086523,-0.015882496,0.0012217305,10118112689,50.757812
10118121529,-1.0588241,-9.859626,0.33020952,10118121529,0.007330383,-0.015882496,0.0012217305,10118121529,50.757812
10118130397,-1.0600204,-9.860822,0.34097722,10118130397,0.007941248,-0.016493361,0.0012217305,10118130397,50.76953
10118139239,-1.0552348,-9.857233,0.33738798,10118139239,0.007330383,-0.018325957,0.00061086525,10118139239,50.76953
10118148095,-1.0660025,-9.860822,0.33738798,10118148095,0.007941248,-0.017104227,0.00061086525,10118148095,50.773438
10118156943,-1.0695918,-9.857233,0.34097722,10118156943,0.008552114,-0.016493361,0,10118156943,50.773438
10118165790,-1.0719845,-9.869197,0.34097722,10118165790,0.007941248,-0.015882496,0.0012217305,10118165790,50.753906
10118174634,-1.0624132,-9.8632145,0.34337005,10118174634,0.007330383,-0.015882496,0.0018325958,10118174634,50.753906
10118183475,-1.0648061,-9.858429,0.33738798,10118183475,0.0061086523,-0.015882496,0.0012217305,10118183475,50.76172
10118192327,-1.0576276,-9.85484,0.34217364,10118192327,0.0061086523,-0.015882496,0.0012217305,10118192327,50.76172
10118201193,-1.0576276,-9.866804,0.34337005,10118201193,0.0061086523,-0.015271631,0.0012217305,10118201193,50.773438
10118210034,-1.0695918,-9.858429,0.34456646,10118210034,0.007941248,-0.015271631,0.0012217305,10118210034,50.773438
10118218878,-1.0588241,-9.859626,0.3469593,10118218878,0.007941248,-0.016493361,0.00061086525,10118218878,50.78125
10118227729,-1.0564312,-9.853643,0.3397808,10118227729,0.007330383,-0.016493361,0.00061086525,10118227729,50.78125
10118236576,-1.0612168,-9.8632145,0.3385844,10118236576,0.007941248,-0.016493361,0.0012217305,10118236576,50.773438
10118245439,-1.0671989,-9.856036,0.33738798,10118245439,0.0067195175,-0.017104227,0,10118245439,50.773438
10118254283,-1.0636097,-9.8632145,0.34456646,10118254283,0.0067195175,-0.017104227,0,10118254283,50.78125
10118263123,-1.0648061,-9.853643,0.3361916,10118263123,0.0067195175,-0.017104227,0.00061086525,10118263123,50.78125
10118271962,-1.0600204,-9.8632145,0.3505485,10118271962,0.0067195175,-0.015271631,0.0018325958,10118271962,50.757812
10118280834,-1.0636097,-9.859626,0.34217364,10118280834,0.0061086523,-0.015882496,0.0012217305,10118280834,50.757812
10118289673,-1.0636097,-9.8632145,0.34337005,10118289673,0.007330383,-0.017104227,0.0012217305,10118289673,50.73047
10118298514,-1.0636097,-9.850055,0.3505485,10118298514,0.0067195175,-0.016493361,0.0018325958,10118298514,50.73047
10118307363,-1.0600204,-9.857233,0.3481557,10118307363,0.007941248,-0.016493361,0.00061086525,10118307363,50.76953
10118316223,-1.0683953,-9.860822,0.34337005,10118316223,0.007330383,-0.016493361,0,10118316223,50.76953
10118325064,-1.0660025,-9.862019,0.33020952,10118325064,0.0067195175,-0.017715093,0.0012217305,10118325064,50.789062
10118333908,-1.0516455,-9.8632145,0.3505485,10118333908,0.0067195175,-0.017104227,0.0012217305,10118333908,50.789062
10118342775,-1.0648061,-9.8632145,0.3493521,10118342775,0.007941248,-0.017104227,0.00061086525,10118342775,50.765625
10118351622,-1.0648061,-9.8632145,0.34337005,10118351622,0.007330383,-0.017104227,0.00061086525,10118351622,50.765625
10118360470,-1.0648061,-9.857233,0.34337005,10118360470,0.007941248,-0.017104227,0.00061086525,10118360470,50.753906
10118369308,-1.0660025,-9.858429,0.33738798,10118369308,0.007941248,-0.017715093,0.0018325958,10118369308,50.753906
10118378161,-1.0600204,-9.853643,0.34576288,10118378161,0.005497787,-0.017104227,0.0012217305,10118378161,50.76172
10118387012,-1.0540384,-9.85484,0.3469593,10118387012,0.007330383,-0.017715093,0.0012217305,10118387012,50.76172
10118395862,-1.0588241,-9.853643,0.34217364,10118395862,0.008552114,-0.017104227,0.0012217305,10118395862,50.765625
10118404706,-1.0576276,-9.859626,0.33738798,10118404706,0.005497787,-0.017715093,0.00061086525,10118404706,50.765625
10118413558,-1.0695918,-9.851251,0.33379877,10118413558,0.005497787,-0.017715093,0.0012217305,10118413558,50.78125
10118422404,-1.0660025,-9.870394,0.3469593,10118422404,0.008552114,-0.018936822,0.00061086525,10118422404,50.78125
10118431266,-1.0636097,-9.860822,0.3469593,10118431266,0.007330383,-0.017715093,0.0012217305,10118431266,50.753906
10118440101,-1.0516455,-9.859626,0.3361916,10118440101,0.007330383,-0.016493361,0.0012217305,10118440101,50.753906
10118448946,-1.0648061,-9.847662,0.33260235,10118448946,0.0067195175,-0.017104227,0.0012217305,10118448946,50.757812
10118457807,-1.0612168,-9.860822,0.34337005,10118457807,0.007941248,-0.017104227,0.0018325958,10118457807,50.757812
10118466650,-1.0624132,-9.859626,0.3290131,10118466650,0.007941248,-0.016493361,0.0012217305,10118466650,50.76172
10118475494,-1.0588241,-9.860822,0.33738798,10118475494,0.007941248,-0.017104227,0.00061086525,10118475494,50.76172
10118484338,-1.0624132,-9.85484,0.3385844,10118484338,0.007330383,-0.016493361,0.0012217305,10118484338,50.78125
10118493187,-1.0552348,-9.8632145,0.33738798,10118493187,0.007941248,-0.016493361,0.00061086525,10118493187,50.78125
10118502035,-1.0600204,-9.870394,0.34217364,10118502035,0.009162978,-0.017715093,0.00061086525,10118502035,50.773438
10118510885,-1.0671989,-9.865608,0.33020952,10118510885,0.007330383,-0.016493361,0.0012217305,10118510885,50.773438
10118519737,-1.052842,-9.853643,0.32063824,10118519737,0.0067195175,-0.016493361,0.00061086525,10118519737,50.773438
10118528592,-1.0540384,-9.864411,0.32422748,10118528592,0.007941248,-0.016493361,-0.00061086525,10118528592,50.773438
10118537450,-1.0564312,-9.8632145,0.32662028,10118537450,0.0061086523,-0.017104227,0,10118537450,50.78125
10118546301,-1.0695918,-9.856036,0.3361916,10118546301,0.0067195175,-0.017104227,0.00061086525,10118546301,50.78125
10118555154,-1.0624132,-9.866804,0.33260235,10118555154,0.007941248,-0.016493361,0.00061086525,10118555154,50.746094
10118563998,-1.0636097,-9.865608,0.3397808,10118563998,0.005497787,-0.017715093,0.0012217305,10118563998,50.746094
10118572829,-1.0648061,-9.864411,0.3481557,10118572829,0.0067195175,-0.017715093,0.0012217305,10118572829,50.757812
10118581700,-1.0648061,-9.860822,0.33260235,10118581700,0.007330383,-0.015271631,0.0018325958,10118581700,50.757812
10118590531,-1.0600204,-9.862019,0.33260235,10118590531,0.007330383,-0.016493361,0.0012217305,10118590531,50.76953
10118599388,-1.0636097,-9.860822,0.33379877,10118599388,0.007941248,-0.016493361,0.00061086525,10118599388,50.76953
10118608229,-1.0576276,-9.853643,0.33260235,10118608229,0.007941248,-0.017104227,0,10118608229,50.773438
10118617080,-1.0516455,-9.864411,0.33379877,10118617080,0.007330383,-0.015271631,-0.00061086525,10118617080,50.773438
10118625942,-1.0588241,-9.868001,0.3361916,10118625942,0.007941248,-0.017104227,0.00061086525,10118625942,50.757812
10118634801,-1.0552348,-9.865608,0.34337005,10118634801,0.007330383,-0.015882496,0,10118634801,50.757812
10118643622,-1.0552348,-9.859626,0.34217364,10118643622,0.0061086523,-0.015882496,0,10118643622,50.757812
10118652470,-1.0624132,-9.859626,0.33379877,10118652470,0.008552114,-0.015882496,0,10118652470,50.757812
10118661340,-1.0552348,-9.856036,0.34097722,10118661340,0.007330383,-0.015882496,0,10118661340,50.765625
10118670189,-1.0719845,-9.866804,0.33499518,10118670189,0.0067195175,-0.015882496,0.0012217305,10118670189,50.765625
10118679018,-1.0660025,-9.859626,0.33379877,10118679018,0.005497787,-0.015882496,0.00061086525,10118679018,50.765625
10118687876,-1.0636097,-9.864411,0.3278167,10118687876,0.007330383,-0.014660766,0.0012217305,10118687876,50.765625
10118696735,-1.0624132,-9.864411,0.34217364,10118696735,0.007330383,-0.015271631,0,10118696735,50.746094
10118705585,-1.0588241,-9.859626,0.3505485,10118705585,0.0067195175,-0.014660766,0.00061086525,10118705585,50.746094
10118714429,-1.0552348,-9.8632145,0.34456646,10118714429,0.008552114,-0.015882496,0,10118714429,50.777344
10118723267,-1.0695918,-9.859626,0.35294133,10118723267,0.007330383,-0.016493361,0.00061086525,10118723267,50.777344
10118732117,-1.0540384,-9.853643,0.3481557,10118732117,0.0067195175,-0.015882496,0.00061086525,10118732117,50.773438
10118740967,-1.0588241,-9.857233,0.3361916,10118740967,0.007330383,-0.017715093,0.0012217305,10118740967,50.773438
10118749827,-1.0588241,-9.870394,0.3481557,10118749827,0.0061086523,-0.017715093,0.0012217305,10118749827,50.757812
10118758670,-1.0588241,-9.857233,0.3505485,10118758670,0.0067195175,-0.016493361,0,10118758670,50.757812
10118767509,-1.0648061,-9.860822,0.34097722,10118767509,0.007941248,-0.018936822,0.0012217305,10118767509,50.765625
10118776366,-1.0648061,-9.857233,0.3493521,10118776366,0.0067195175,-0.017715093,0.0012217305,10118776366,50.765625
10118785212,-1.0695918,-9.865608,0.3589234,10118785212,0.007330383,-0.017104227,0.0012217305,10118785212,50.789062
10118794056,-1.0695918,-9.8632145,0.3397808,10118794056,0.007330383,-0.016493361,0.0012217305,10118794056,50.789062
10118802910,-1.0660025,-9.848858,0.3385844,10118802910,0.0067195175,-0.015271631,0.00061086525,10118802910,50.765625
10118811773,-1.0660025,-9.868001,0.3505485,10118811773,0.007330383,-0.017104227,0.0012217305,10118811773,50.765625
10118820620,-1.0600204,-9.860822,0.3278167,10118820620,0.0061086523,-0.017104227,0.00061086525,10118820620,50.757812
10118829455,-1.052842,-9.857233,0.3361916,10118829455,0.0061086523,-0.015882496,0.0012217305,10118829455,50.757812
10118838306,-1.0624132,-9.85484,0.33738798,10118838306,0.0061086523,-0.016493361,0.0018325958,10118838306,50.78125
10118847168,-1.0600204,-9.865608,0.34337005,10118847168,0.007941248,-0.017715093,0.0018325958,10118847168,50.78125
10118856006,-1.0576276,-9.851251,0.32542387,10118856006,0.008552114,-0.017715093,0.0012217305,10118856006,50.753906
10118864848,-1.0624132,-9.859626,0.34217364,10118864848,0.0067195175,-0.017104227,0.0012217305,10118864848,50.753906
10118873691,-1.0695918,-9.864411,0.34097722,10118873691,0.005497787,-0.017104227,0.00061086525,10118873691,50.742188
10118882545,-1.0660025,-9.859626,0.33260235,10118882545,0.007941248,-0.016493361,0.00061086525,10118882545,50.742188
10118891403,-1.0600204,-9.851251,0.34337005,10118891403,0.008552114,-0.018325957,0,10118891403,50.75
10118900257,-1.0636097,-9.8632145,0.33260235,10118900257,0.007941248,-0.017715093,0.00061086525,10118900257,50.75
10118909096,-1.0695918,-9.865608,0.33499518,10118909096,0.007941248,-0.017715093,0.0012217305,10118909096,50.76953
10118917960,-1.0683953,-9.856036,0.3385844,10118917960,0.007330383,-0.017104227,0.00061086525,10118917960,50.76953
10118926800,-1.0600204,-9.868001,0.33499518,10118926800,0.0067195175,-0.017715093,0,10118926800,50.765625
10118935654,-1.0588241,-9.870394,0.3361916,10118935654,0.007941248,-0.017104227,0.00061086525,10118935654,50.765625
10118944497,-1.0588241,-9.868001,0.3361916,10118944497,0.0067195175,-0.017104227,0,10118944497,50.757812
10118953334,-1.0624132,-9.865608,0.34576288,10118953334,0.007941248,-0.017104227,0.00061086525,10118953334,50.757812
10118962198,-1.0648061,-9.85484,0.3385844,10118962198,0.0061086523,-0.016493361,0,10118962198,50.78125
10118971045,-1.0564312,-9.860822,0.33020952,10118971045,0.008552114,-0.017715093,0,10118971045,50.78125
10118979881,-1.0504491,-9.865608,0.3397808,10118979881,0.0067195175,-0.017715093,0,10118979881,50.773438
10118988753,-1.0552348,-9.860822,0.3385844,10118988753,0.007941248,-0.017104227,0.0012217305,10118988753,50.773438
10118997582,-1.0671989,-9.858429,0.3278167,10118997582,0.0067195175,-0.016493361,0.0012217305,10118997582,50.765625
10119006431,-1.0719845,-9.858429,0.3361916,10119006431,0.008552114,-0.015882496,0.0012217305,10119006431,50.765625
10119015220,-1.0707881,-9.859626,0.3278167,10119015220,0.008552114,-0.015882496,0.00061086525,10119015220,50.773438
10119024064,-1.0660025,-9.864411,0.33140594,10119024064,0.007330383,-0.017104227,0.0012217305,10119024064,50.773438
10119032986,-1.0540384,-9.866804,0.33379877,10119032986,0.0067195175,-0.015882496,-0.00061086525,10119032986,50.765625
10119041846,-1.0576276,-9.869197,0.3361916,10119041846,0.007330383,-0.016493361,0,10119041846,50.765625
10119050674,-1.0480564,-9.866804,0.32542387,10119050674,0.007330383,-0.015882496,0.0012217305,10119050674,50.746094
10119059540,-1.0683953,-9.864411,0.33499518,10119059540,0.0067195175,-0.015882496,0.0012217305,10119059540,50.746094
10119068384,-1.0612168,-9.860822,0.33020952,10119068384,0.007941248,-0.015882496,0.00061086525,10119068384,50.76172
10119077237,-1.0612168,-9.859626,0.34217364,10119077237,0.0067195175,-0.015271631,0.00061086525,10119077237,50.76172
10119086080,-1.0660025,-9.857233,0.33499518,10119086080,0.007330383,-0.015882496,0.00061086525,10119086080,50.757812
10119094951,-1.0743774,-9.868001,0.3397808,10119094951,0.007330383,-0.014660766,0.00061086525,10119094951,50.757812
10119103772,-1.0660025,-9.856036,0.34337005,10119103772,0.005497787,-0.014049901,0.00061086525,10119103772,50.78125
10119112625,-1.0648061,-9.856036,0.34097722,10119112625,0.007330383,-0.015882496,0,10119112625,50.78125
10119121472,-1.0588241,-9.862019,0.33738798,10119121472,0.008552114,-0.015271631,0,10119121472,50.757812
10119130326,-1.0600204,-9.875179,0.34217364,10119130326,0.007330383,-0.015271631,0,10119130326,50.757812
10119139169,-1.0552348,-9.869197,0.34217364,10119139169,0.007330383,-0.015271631,0.00061086525,10119139169,50.78125
10119148025,-1.0707881,-9.860822,0.3397808,10119148025,0.007941248,-0.016493361,0.0012217305,10119148025,50.78125
10119156864,-1.0504491,-9.865608,0.3505485,10119156864,0.008552114,-0.015882496,0.0018325958,10119156864,50.765625
10119165728,-1.0624132,-9.865608,0.3397808,10119165728,0.007941248,-0.015271631,0.00061086525,10119165728,50.765625
10119174572,-1.0707881,-9.860822,0.35413775,10119174572,0.0067195175,-0.015882496,0.00061086525,10119174572,50.765625
10119183416,-1.0767702,-9.8632145,0.35533416,10119183416,0.007330383,-0.016493361,0.00061086525,10119183416,50.765625
10119192277,-1.0612168,-9.859626,0.35533416,10119192277,0.007941248,-0.015882496,0.0012217305,10119192277,50.757812
10119201109,-1.0648061,-9.870394,0.3481557,10119201109,0.007330383,-0.017104227,0.00061086525,10119201109,50.757812
10119209968,-1.052842,-9.865608,0.3469593,10119209968,0.0061086523,-0.016493361,0.00061086525,10119209968,50.753906
10119218808,-1.0636097,-9.856036,0.33738798,10119218808,0.007330383,-0.015882496,0.00061086525,10119218808,50.753906
10119227676,-1.0576276,-9.857233,0.3505485,10119227676,0.007330383,-0.016493361,0.0012217305,10119227676,50.76172
10119236525,-1.0660025,-9.859626,0.35294133,10119236525,0.0061086523,-0.017104227,0.0012217305,10119236525,50.76172
10119245358,-1.0576276,-9.862019,0.3481557,10119245358,0.0061086523,-0.016493361,0.0012217305,10119245358,50.773438
10119254202,-1.0600204,-9.860822,0.3469593,10119254202,0.007330383,-0.017715093,0.00061086525,10119254202,50.773438
10119263069,-1.0504491,-9.869197,0.3505485,10119263069,0.009162978,-0.017104227,0.0012217305,10119263069,50.773438
10119271912,-1.0576276,-9.860822,0.34217364,10119271912,0.0067195175,-0.017715093,0.00061086525,10119271912,50.773438
10119280754,-1.0612168,-9.859626,0.3278167,10119280754,0.007330383,-0.017104227,0.00061086525,10119280754,50.765625
10119289617,-1.0600204,-9.865608,0.33379877,10119289617,0.007941248,-0.017104227,0.0012217305,10119289617,50.765625
10119298452,-1.0624132,-9.8727865,0.3397808,10119298452,0.0067195175,-0.016493361,0.00061086525,10119298452,50.773438
10119307311,-1.0612168,-9.860822,0.34337005,10119307311,0.007330383,-0.015882496,0.00061086525,10119307311,50.773438
10119316146,-1.0612168,-9.858429,0.3493521,10119316146,0.007330383,-0.017104227,0.00061086525,10119316146,50.789062
10119325002,-1.0731809,-9.8632145,0.3469593,10119325002,0.007330383,-0.015882496,0.0012217305,10119325002,50.789062
10119333846,-1.0648061,-9.866804,0.35174492,10119333846,0.007941248,-0.017104227,0.00061086525,10119333846,50.765625
10119342700,-1.0552348,-9.864411,0.3493521,10119342700,0.007330383,-0.017104227,0.0012217305,10119342700,50.765625
10119351554,-1.0540384,-9.856036,0.33738798,10119351554,0.0067195175,-0.015882496,0.0012217305,10119351554,50.753906
10119360392,-1.0624132,-9.8632145,0.33020952,10119360392,0.0067195175,-0.016493361,0.00061086525,10119360392,50.753906
10119369251,-1.0648061,-9.869197,0.33260235,10119369251,0.007330383,-0.016493361,0.00061086525,10119369251,50.75
10119378107,-1.0707881,-9.868001,0.33379877,10119378107,0.007941248,-0.017715093,0.0012217305,10119378107,50.75
10119386955,-1.0516455,-9.864411,0.33499518,10119386955,0.007330383,-0.016493361,0.0012217305,10119386955,50.76953
10119395804,-1.0624132,-9.864411,0.34217364,10119395804,0.007330383,-0.015882496,0.00061086525,10119395804,50.76953
10119404755,-1.0564312,-9.856036,0.3469593,10119404755,0.007330383,-0.016493361,0.0012217305,10119404755,50.757812
10119413484,-1.0648061,-9.856036,0.34456646,10119413484,0.007941248,-0.016493361,0.0012217305,10119413484,50.757812
10119422332,-1.0516455,-9.853643,0.31944183,10119422332,0.007941248,-0.015882496,0,10119422332,50.753906
10119431195,-1.052842,-9.862019,0.3290131,10119431195,0.009162978,-0.015882496,0.00061086525,10119431195,50.753906
10119440031,-1.0564312,-9.866804,0.3278167,10119440031,0.0067195175,-0.017104227,0.00061086525,10119440031,50.757812
10119448895,-1.0588241,-9.870394,0.33020952,10119448895,0.007941248,-0.017104227,0.00061086525,10119448895,50.757812
10119457728,-1.0552348,-9.865608,0.34456646,10119457728,0.008552114,-0.015882496,0.0012217305,10119457728,50.76953
10119466583,-1.0600204,-9.864411,0.34217364,10119466583,0.0067195175,-0.015271631,0.00061086525,10119466583,50.76953
10119475436,-1.0564312,-9.864411,0.33499518,10119475436,0.007941248,-0.015882496,0,10119475436,50.773438
10119484280,-1.0612168,-9.862019,0.33379877,10119484280,0.007330383,-0.016493361,0,10119484280,50.773438
10119493143,-1.0552348,-9.865608,0.33020952,10119493143,0.0067195175,-0.018325957,0.0018325958,10119493143,50.773438
10119501965,-1.0624132,-9.866804,0.34217364,10119501965,0.007330383,-0.017104227,0.0012217305,10119501965,50.773438
10119510840,-1.0540384,-9.865608,0.32303107,10119510840,0.007941248,-0.015882496,0.0012217305,10119510840,50.757812
10119519680,-1.0492527,-9.860822,0.33379877,10119519680,0.007330383,-0.015882496,0.0012217305,10119519680,50.757812
10119528542,-1.0695918,-9.853643,0.3290131,10119528542,0.007330383,-0.015271631,0.00061086525,10119528542,50.757812
10119537378,-1.0600204,-9.853643,0.34337005,10119537378,0.007941248,-0.015271631,0.00061086525,10119537378,50.757812
10119546240,-1.0671989,-9.868001,0.33738798,10119546240,0.007330383,-0.017104227,0.00061086525,10119546240,50.765625
10119555080,-1.0767702,-9.858429,0.3385844,10119555080,0.007941248,-0.016493361,0.0012217305,10119555080,50.765625
10119563924,-1.0767702,-9.853643,0.33499518,10119563924,0.008552114,-0.015882496,0.00061086525,10119563924,50.765625
10119572767,-1.0636097,-9.8524475,0.33499518,10119572767,0.0061086523,-0.015882496,0.00061086525,10119572767,50.765625
10119581612,-1.0588241,-9.856036,0.3290131,10119581612,0.007330383,-0.016493361,0.00061086525,10119581612,50.773438
10119590467,-1.0600204,-9.858429,0.33738798,10119590467,0.007941248,-0.016493361,0.0012217305,10119590467,50.773438
10119599319,-1.0755738,-9.862019,0.3385844,10119599319,0.0067195175,-0.015271631,0.00061086525,10119599319,50.773438
10119608160,-1.0636097,-9.866804,0.34337005,10119608160,0.007941248,-0.016493361,0.00061086525,10119608160,50.773438
10119617011,-1.0671989,-9.853643,0.34456646,10119617011,0.0067195175,-0.015882496,0.00061086525,10119617011,50.757812
10119625870,-1.0636097,-9.865608,0.34576288,10119625870,0.007941248,-0.015882496,0.00061086525,10119625870,50.757812
10119634714,-1.0588241,-9.865608,0.34576288,10119634714,0.007330383,-0.016493361,0,10119634714,50.765625
10119643576,-1.0624132,-9.868001,0.33140594,10119643576,0.0067195175,-0.017104227,0.0012217305,10119643576,50.765625
10119652424,-1.0624132,-9.858429,0.3278167,10119652424,0.0067195175,-0.015882496,0.0012217305,10119652424,50.765625
10119661254,-1.0624132,-9.857233,0.3469593,10119661254,0.007330383,-0.017715093,0.0012217305,10119661254,50.765625
10119670123,-1.0540384,-9.85484,0.3469593,10119670123,0.007330383,-0.016493361,0.00061086525,10119670123,50.78125
10119678969,-1.0719845,-9.865608,0.34217364,10119678969,0.0067195175,-0.016493361,0.0012217305,10119678969,50.78125
10119687806,-1.0600204,-9.8524475,0.3385844,10119687806,0.007330383,-0.015271631,0,10119687806,50.773438
10119696656,-1.0588241,-9.85484,0.35174492,10119696656,0.0067195175,-0.017104227,0,10119696656,50.773438
10119705511,-1.0576276,-9.859626,0.34456646,10119705511,0.0067195175,-0.016493361,0.00061086525,10119705511,50.757812
10119714355,-1.0636097,-9.859626,0.3469593,10119714355,0.0061086523,-0.017104227,0.00061086525,10119714355,50.757812
10119723217,-1.0731809,-9.857233,0.34576288,10119723217,0.0067195175,-0.017104227,0,10119723217,50.773438
10119732055,-1.0683953,-9.8632145,0.3385844,10119732055,0.0067195175,-0.016493361,0,10119732055,50.773438
10119740722,-1.0731809,-9.862019,0.3290131,10119740722,0.007330383,-0.016493361,0.00061086525,10119740722,50.73047
10119749762,-1.0576276,-9.859626,0.34337005,10119749762,0.007330383,-0.016493361,0,10119749762,50.73047
10119758594,-1.0588241,-9.860822,0.3397808,10119758594,0.007330383,-0.015882496,0.00061086525,10119758594,50.76172
10119767456,-1.0660025,-9.859626,0.35174492,10119767456,0.007330383,-0.015882496,0.0012217305,10119767456,50.76172
10119776301,-1.0624132,-9.860822,0.35174492,10119776301,0.008552114,-0.015271631,0.0018325958,10119776301,50.773438
10119785164,-1.0648061,-9.869197,0.33738798,10119785164,0.008552114,-0.017104227,0.0018325958,10119785164,50.773438
10119794008,-1.0600204,-9.865608,0.34576288,10119794008,0.007941248,-0.017715093,0.0012217305,10119794008,50.757812
10119802839,-1.0731809,-9.857233,0.34217364,10119802839,0.008552114,-0.017104227,0.0012217305,10119802839,50.757812
10119811686,-1.0624132,-9.856036,0.33499518,10119811686,0.0067195175,-0.017715093,0.0012217305,10119811686,50.757812
10119820539,-1.0624132,-9.860822,0.3278167,10119820539,0.0067195175,-0.018325957,0.0018325958,10119820539,50.757812
10119829391,-1.0600204,-9.859626,0.32542387,10119829391,0.007330383,-0.017104227,0.0012217305,10119829391,50.757812
10119838247,-1.0648061,-9.865608,0.33738798,10119838247,0.0067195175,-0.017104227,0.00061086525,10119838247,50.757812
10119847095,-1.0600204,-9.865608,0.32422748,10119847095,0.007330383,-0.017715093,0.00061086525,10119847095,50.765625
10119855936,-1.0648061,-9.868001,0.33738798,10119855936,0.007330383,-0.018325957,0.0012217305,10119855936,50.765625
10119864806,-1.0576276,-9.862019,0.34097722,10119864806,0.007941248,-0.016493361,0,10119864806,50.765625
10119873627,-1.0660025,-9.8632145,0.3361916,10119873627,0.007330383,-0.015882496,0.0012217305,10119873627,50.765625
10119882479,-1.0683953,-9.856036,0.3397808,10119882479,0.007330383,-0.015882496,0.00061086525,10119882479,50.73047
10119891336,-1.0552348,-9.865608,0.33260235,10119891336,0.007941248,-0.015882496,0.0012217305,10119891336,50.73047
10119900177,-1.0516455,-9.859626,0.32542387,10119900177,0.007330383,-0.016493361,0.0018325958,10119900177,50.79297
10119909022,-1.0600204,-9.848858,0.34217364,10119909022,0.007330383,-0.016493361,0.00061086525,10119909022,50.79297
10119917890,-1.0660025,-9.858429,0.3278167,10119917890,0.007330383,-0.016493361,0.00061086525,10119917890,50.73828
10119926739,-1.0600204,-9.866804,0.33260235,10119926739,0.0067195175,-0.017715093,0.00061086525,10119926739,50.73828
10119935582,-1.0588241,-9.858429,0.3385844,10119935582,0.007330383,-0.017104227,0.00061086525,10119935582,50.777344
10119944426,-1.0612168,-9.862019,0.33738798,10119944426,0.007941248,-0.016493361,0,10119944426,50.777344
10119953284,-1.0504491,-9.866804,0.33499518,10119953284,0.0067195175,-0.016493361,0.0012217305,10119953284,50.757812
10119962121,-1.0612168,-9.858429,0.33499518,10119962121,0.0067195175,-0.016493361,0.00061086525,10119962121,50.757812
10119970984,-1.0648061,-9.856036,0.34097722,10119970984,0.0067195175,-0.015882496,0.0012217305,10119970984,50.765625
10119979822,-1.0671989,-9.857233,0.34097722,10119979822,0.0067195175,-0.015271631,0.0012217305,10119979822,50.765625
10119988673,-1.0624132,-9.864411,0.34337005,10119988673,0.0067195175,-0.015882496,0.0018325958,10119988673,50.789062
10119997533,-1.0660025,-9.865608,0.33738798,10119997533,0.007330383,-0.015882496,0.0012217305,10119997533,50.789062
10120006371,-1.0552348,-9.8524475,0.3505485,10120006371,0.007941248,-0.016493361,0.00061086525,10120006371,50.78125
10120015233,-1.0540384,-9.858429,0.33738798,10120015233,0.007941248,-0.016493361,0.00061086525,10120015233,50.78125
10120024077,-1.0671989,-9.859626,0.34576288,10120024077,0.007941248,-0.017104227,0,10120024077,50.753906
10120032925,-1.0671989,-9.866804,0.33020952,10120032925,0.007330383,-0.017104227,0,10120032925,50.753906
10120041774,-1.0743774,-9.856036,0.34456646,10120041774,0.007941248,-0.015882496,0.00061086525,10120041774,50.76172
10120050612,-1.0576276,-9.8632145,0.33140594,10120050612,0.007941248,-0.016493361,0.00061086525,10120050612,50.76172
10120059465,-1.0624132,-9.8632145,0.33499518,10120059465,0.007941248,-0.015882496,0,10120059465,50.757812
10120068308,-1.0719845,-9.860822,0.34576288,10120068308,0.007941248,-0.017104227,0.0012217305,10120068308,50.757812
10120077163,-1.0588241,-9.856036,0.34217364,10120077163,0.007330383,-0.016493361,0.00061086525,10120077163,50.765625
10120086010,-1.0636097,-9.864411,0.33499518,10120086010,0.007941248,-0.016493361,0,10120086010,50.765625
10120094871,-1.0624132,-9.862019,0.3397808,10120094871,0.007941248,-0.017104227,0.0012217305,10120094871,50.757812
10120103714,-1.0600204,-9.859626,0.34097722,10120103714,0.0067195175,-0.016493361,0.0012217305,10120103714,50.757812
10120112559,-1.0552348,-9.859626,0.3397808,10120112559,0.007330383,-0.015882496,0,10120112559,50.765625
10120121418,-1.0719845,-9.859626,0.34217364,10120121418,0.007941248,-0.017104227,0.00061086525,10120121418,50.765625
10120130249,-1.0612168,-9.859626,0.34097722,10120130249,0.007330383,-0.016493361,0.00061086525,10120130249,50.765625
10120139102,-1.0540384,-9.8632145,0.34217364,10120139102,0.005497787,-0.016493361,0.0018325958,10120139102,50.765625
10120147971,-1.0552348,-9.868001,0.3481557,10120147971,0.007941248,-0.015882496,0.0012217305,10120147971,50.757812
10120156810,-1.0576276,-9.8727865,0.35413775,10120156810,0.007330383,-0.016493361,0.00061086525,10120156810,50.757812
10120165667,-1.0671989,-9.864411,0.3397808,10120165667,0.0067195175,-0.016493361,0.00061086525,10120165667,50.789062
10120174511,-1.0719845,-9.858429,0.33379877,10120174511,0.009162978,-0.016493361,0.0012217305,10120174511,50.789062
10120183351,-1.0600204,-9.856036,0.34576288,10120183351,0.009162978,-0.017104227,0.0012217305,10120183351,50.765625
10120192206,-1.0600204,-9.853643,0.34456646,10120192206,0.007330383,-0.017715093,0.00061086525,10120192206,50.765625
