accelerationTimestamp,accelerationX,accelerationY,accelerationZ,angularSpeedTimestamp,angularSpeedX,angularSpeedY,angularSpeedZ,temperatureTimestamp,temperature
10062830645,-0.72741807,-9.757931,0.2536392,10062830645,-0.002443461,-0.013439035,0.0012217305,10062830645,54.179688
10062832926,-0.7513463,-9.777073,0.2440679,10062832926,-0.002443461,-0.008552114,0.0012217305,10062832926,54.179688
10062835206,-0.75613195,-9.786645,0.22492532,10062835206,-0.002443461,-0.012217305,0.0012217305,10062835206,54.179688
10062837486,-0.7465607,-9.767502,0.24885355,10062837486,-0.0012217305,-0.012217305,0.002443461,10062837486,54.179688
10062839825,-0.75613195,-9.767502,0.2536392,10062839825,-0.0036651916,-0.014660766,0.0036651916,10062839825,54.179688
10062842058,-0.76570326,-9.767502,0.23449662,10062842058,-0.002443461,-0.012217305,0.0012217305,10062842058,54.179688
10062844339,-0.74177504,-9.786645,0.22971097,10062844339,-0.004886922,-0.014660766,0.0036651916,10062844339,54.179688
10062846619,-0.7609176,-9.79143,0.2440679,10062846619,-0.002443461,-0.015882496,0.0012217305,10062846619,54.179688
10062848899,-0.7513463,-9.786645,0.23928227,10062848899,-0.0036651916,-0.012217305,0.002443461,10062848899,54.179688
10062851167,-0.7465607,-9.777073,0.21535404,10062851167,-0.0012217305,-0.013439035,0.002443461,10062851167,54.179688
10062853447,-0.7609176,-9.781859,0.2440679,10062853447,-0.0061086523,-0.013439035,0.002443461,10062853447,54.179688
10062855728,-0.7609176,-9.781859,0.22492532,10062855728,-0.0036651916,-0.012217305,0.0012217305,10062855728,54.179688
10062858008,-0.7369894,-9.762716,0.22013968,10062858008,-0.0012217305,-0.014660766,0.002443461,10062858008,54.179688
10062860302,-0.74177504,-9.762716,0.20578274,10062860302,-0.0036651916,-0.013439035,0.0012217305,10062860302,54.164062
10062862583,-0.7322037,-9.777073,0.2440679,10062862583,-0.002443461,-0.012217305,0.002443461,10062862583,54.164062
10062864863,-0.7465607,-9.762716,0.23449662,10062864863,-0.0012217305,-0.015882496,0.002443461,10062864863,54.164062
10062867143,-0.7465607,-9.777073,0.22971097,10062867143,-0.0012217305,-0.012217305,0.004886922,10062867143,54.164062
10062869839,-0.7609176,-9.762716,0.22971097,10062869839,-0.002443461,-0.013439035,0.004886922,10062869839,54.164062
10062871716,-0.74177504,-9.767502,0.23449662,10062871716,-0.0012217305,-0.013439035,0.0012217305,10062871716,54.164062
10062873996,-0.72741807,-9.772287,0.22013968,10062873996,-0.0036651916,-0.009773844,0,10062873996,54.164062
10062876277,-0.7369894,-9.772287,0.22492532,10062876277,0.0012217305,-0.014660766,0.0012217305,10062876277,54.164062
10062878557,-0.7609176,-9.772287,0.2105684,10062878557,0,-0.014660766,0.0012217305,10062878557,54.171875
10062880849,-0.76570326,-9.786645,0.2009971,10062880849,0.002443461,-0.012217305,0.002443461,10062880849,54.171875
10062883129,-0.7322037,-9.777073,0.22492532,10062883129,-0.0012217305,-0.014660766,0.002443461,10062883129,54.171875
10062885410,-0.7465607,-9.777073,0.22013968,10062885410,-0.0012217305,-0.013439035,0.002443461,10062885410,54.171875
10062887690,-0.75613195,-9.772287,0.23928227,10062887690,0.002443461,-0.013439035,0.0012217305,10062887690,54.171875
10062889961,-0.7513463,-9.757931,0.2105684,10062889961,-0.0012217305,-0.014660766,0.0012217305,10062889961,54.171875
10062892241,-0.74177504,-9.767502,0.23449662,10062892241,-0.0012217305,-0.008552114,0.0012217305,10062892241,54.171875
10062894521,-0.7513463,-9.757931,0.22492532,10062894521,-0.0036651916,-0.013439035,0.0012217305,10062894521,54.171875
10062896802,-0.74177504,-9.772287,0.21535404,10062896802,-0.0036651916,-0.013439035,0.0012217305,10062896802,54.171875
10062899082,-0.7322037,-9.777073,0.2105684,10062899082,-0.0012217305,-0.012217305,0.0012217305,10062899082,54.171875
10062901370,-0.7513463,-9.781859,0.21535404,10062901370,-0.002443461,-0.014660766,0.0036651916,10062901370,54.171875
10062903650,-0.75613195,-9.767502,0.2105684,10062903650,-0.0036651916,-0.012217305,0.004886922,10062903650,54.171875
10062905930,-0.7322037,-9.777073,0.20578274,10062905930,0.0012217305,-0.013439035,0.002443461,10062905930,54.171875
10062908211,-0.7513463,-9.781859,0.2105684,10062908211,-0.0036651916,-0.013439035,0.0012217305,10062908211,54.171875
10062910499,-0.7465607,-9.762716,0.22492532,10062910499,-0.0012217305,-0.013439035,0.0012217305,10062910499,54.171875
10062912780,-0.7513463,-9.777073,0.20578274,10062912780,0,-0.015882496,0,10062912780,54.171875
10062915060,-0.75613195,-9.762716,0.22013968,10062915060,-0.002443461,-0.010995574,0.002443461,10062915060,54.164062
10062917340,-0.7465607,-9.753145,0.21535404,10062917340,-0.0012217305,-0.012217305,0.002443461,10062917340,54.164062
10062919748,-0.75613195,-9.772287,0.2009971,10062919748,0.0012217305,-0.017104227,0.0012217305,10062919748,54.164062
10062921910,-0.74177504,-9.777073,0.21535404,10062921910,-0.0012217305,-0.012217305,0.0012217305,10062921910,54.164062
10062924190,-0.74177504,-9.777073,0.20578274,10062924190,-0.002443461,-0.010995574,0.0036651916,10062924190,54.164062
10062926471,-0.7513463,-9.796216,0.20578274,10062926471,-0.0036651916,-0.014660766,0.0036651916,10062926471,54.164062
10062928751,-0.74177504,-9.772287,0.2009971,10062928751,-0.002443461,-0.010995574,0.0036651916,10062928751,54.164062
10062931021,-0.7369894,-9.772287,0.19621146,10062931021,-0.0012217305,-0.013439035,0.0036651916,10062931021,54.164062
10062933301,-0.74177504,-9.777073,0.20578274,10062933301,-0.0012217305,-0.010995574,0.0012217305,10062933301,54.148438
10062935582,-0.7465607,-9.772287,0.22013968,10062935582,-0.002443461,-0.012217305,0.0012217305,10062935582,54.148438
10062937862,-0.7369894,-9.777073,0.20578274,10062937862,-0.002443461,-0.013439035,0.004886922,10062937862,54.148438
10062940148,-0.7513463,-9.762716,0.21535404,10062940148,-0.0036651916,-0.012217305,0.002443461,10062940148,54.148438
10062942429,-0.7513463,-9.772287,0.21535404,10062942429,-0.0012217305,-0.013439035,0.002443461,10062942429,54.148438
10062944709,-0.74177504,-9.786645,0.2009971,10062944709,-0.0012217305,-0.012217305,0.0036651916,10062944709,54.148438
10062946989,-0.7513463,-9.777073,0.21535404,10062946989,-0.0036651916,-0.012217305,0.0012217305,10062946989,54.148438
10062949701,-0.7369894,-9.781859,0.21535404,10062949701,0,-0.012217305,0.0012217305,10062949701,54.148438
10062951554,-0.7752745,-9.781859,0.22492532,10062951554,-0.0012217305,-0.012217305,0.0012217305,10062951554,54.171875
10062953835,-0.76570326,-9.786645,0.22971097,10062953835,-0.0036651916,-0.012217305,0.0012217305,10062953835,54.171875
10062956115,-0.74177504,-9.772287,0.20578274,10062956115,-0.002443461,-0.008552114,0.0036651916,10062956115,54.171875
10062958395,-0.7465607,-9.772287,0.2105684,10062958395,-0.0012217305,-0.012217305,0.0036651916,10062958395,54.171875
10062960680,-0.7465607,-9.781859,0.20578274,10062960680,-0.0036651916,-0.012217305,0.0036651916,10062960680,54.171875
10062962960,-0.74177504,-9.762716,0.22971097,10062962960,-0.0012217305,-0.012217305,0.0012217305,10062962960,54.171875
10062965240,-0.7513463,-9.762716,0.20578274,10062965240,-0.0012217305,-0.010995574,0.002443461,10062965240,54.171875
10062967521,-0.7369894,-9.762716,0.2105684,10062967521,-0.0012217305,-0.010995574,0.002443461,10062967521,54.171875
10062969821,-0.72263247,-9.79143,0.19621146,10062969821,0.0012217305,-0.012217305,0.0012217305,10062969821,54.1875
10062972102,-0.7322037,-9.79143,0.22013968,10062972102,0.002443461,-0.010995574,0.002443461,10062972102,54.1875
10062974382,-0.7465607,-9.772287,0.2009971,10062974382,-0.0012217305,-0.012217305,0.002443461,10062974382,54.1875
10062976662,-0.7513463,-9.772287,0.19621146,10062976662,-0.002443461,-0.008552114,0.002443461,10062976662,54.1875
10062978942,-0.7322037,-9.777073,0.23449662,10062978942,-0.0012217305,-0.009773844,0.0036651916,10062978942,54.1875
10062981228,-0.74177504,-9.786645,0.25842485,10062981228,-0.002443461,-0.012217305,0.0036651916,10062981228,54.1875
10062983508,-0.7704889,-9.767502,0.2105684,10062983508,-0.002443461,-0.010995574,0.002443461,10062983508,54.1875
10062985789,-0.7465607,-9.757931,0.18185452,10062985789,-0.0036651916,-0.010995574,0.0012217305,10062985789,54.1875
10062988069,-0.7322037,-9.786645,0.23928227,10062988069,-0.0012217305,-0.008552114,0.0036651916,10062988069,54.164062
10062990338,-0.7322037,-9.777073,0.23928227,10062990338,-0.0012217305,-0.010995574,0.0012217305,10062990338,54.164062
10062992619,-0.7704889,-9.767502,0.2105684,10062992619,-0.0012217305,-0.010995574,0.002443461,10062992619,54.164062
10062994899,-0.74177504,-9.753145,0.17228323,10062994899,-0.002443461,-0.010995574,0.0036651916,10062994899,54.164062
10062997179,-0.7465607,-9.777073,0.23449662,10062997179,-0.002443461,-0.008552114,0.0012217305,10062997179,54.164062
10062999708,-0.7322037,-9.753145,0.18664017,10062999708,-0.0061086523,-0.012217305,0.0036651916,10062999708,54.164062
10063001751,-0.75613195,-9.762716,0.22971097,10063001751,-0.0012217305,-0.010995574,0.002443461,10063001751,54.164062
10063004032,-0.72741807,-9.767502,0.20578274,10063004032,0.0012217305,-0.010995574,0.002443461,10063004032,54.164062
10063006312,-0.7609176,-9.772287,0.23449662,10063006312,-0.0012217305,-0.012217305,0.0012217305,10063006312,54.15625
10063008592,-0.71306115,-9.767502,0.2105684,10063008592,-0.0012217305,-0.009773844,0.0036651916,10063008592,54.15625
10063010879,-0.7513463,-9.786645,0.22013968,10063010879,-0.0036651916,-0.014660766,0.002443461,10063010879,54.15625
10063013159,-0.6987042,-9.767502,0.17706887,10063013159,-0.0012217305,-0.012217305,0.0036651916,10063013159,54.15625
10063015439,-0.7609176,-9.767502,0.21535404,10063015439,-0.0012217305,-0.010995574,0.002443461,10063015439,54.15625
10063017720,-0.7322037,-9.772287,0.2009971,10063017720,0,-0.009773844,0.0012217305,10063017720,54.15625
10063020015,-0.7513463,-9.757931,0.22971097,10063020015,-0.0036651916,-0.010995574,0.0012217305,10063020015,54.15625
10063022296,-0.7322037,-9.767502,0.23449662,10063022296,-0.004886922,-0.009773844,0.004886922,10063022296,54.15625
10063024576,-0.7513463,-9.781859,0.23928227,10063024576,-0.002443461,-0.012217305,0.002443461,10063024576,54.164062
10063026856,-0.75613195,-9.762716,0.22013968,10063026856,-0.002443461,-0.010995574,0.002443461,10063026856,54.164062
10063029136,-0.7369894,-9.762716,0.2536392,10063029136,-0.0012217305,-0.013439035,0,10063029136,54.164062
10063031414,-0.75613195,-9.79143,0.23449662,10063031414,-0.002443461,-0.010995574,0,10063031414,54.164062
10063033694,-0.7704889,-9.777073,0.21535404,10063033694,-0.002443461,-0.009773844,0.002443461,10063033694,54.164062
10063035975,-0.7609176,-9.753145,0.19142582,10063035975,-0.0012217305,-0.013439035,0.002443461,10063035975,54.164062
10063038255,-0.72263247,-9.79143,0.2105684,10063038255,0.0012217305,-0.010995574,0.0012217305,10063038255,54.164062
10063040534,-0.74177504,-9.772287,0.2105684,10063040534,-0.0012217305,-0.012217305,0.0012217305,10063040534,54.164062
10063042814,-0.74177504,-9.757931,0.23928227,10063042814,0,-0.010995574,0.0036651916,10063042814,54.171875
10063045094,-0.72263247,-9.753145,0.2536392,10063045094,0,-0.010995574,0.0012217305,10063045094,54.171875
10063047375,-0.7322037,-9.777073,0.21535404,10063047375,-0.0012217305,-0.009773844,0.0012217305,10063047375,54.171875
10063049838,-0.7369894,-9.772287,0.22492532,10063049838,-0.0012217305,-0.009773844,0.0036651916,10063049838,54.171875
10063051953,-0.74177504,-9.767502,0.22013968,10063051953,0,-0.010995574,0.002443461,10063051953,54.171875
10063054233,-0.7609176,-9.767502,0.2009971,10063054233,0,-0.012217305,0.0012217305,10063054233,54.171875
10063056513,-0.7513463,-9.781859,0.2105684,10063056513,-0.002443461,-0.009773844,0.002443461,10063056513,54.171875
10063058793,-0.7465607,-9.767502,0.20578274,10063058793,-0.0012217305,-0.012217305,0.002443461,10063058793,54.171875
10063061072,-0.74177504,-9.762716,0.2105684,10063061072,-0.0036651916,-0.010995574,0.002443461,10063061072,54.179688
10063063353,-0.7178468,-9.79143,0.21535404,10063063353,-0.002443461,-0.013439035,0.002443461,10063063353,54.179688
10063065633,-0.72741807,-9.767502,0.2105684,10063065633,-0.0036651916,-0.009773844,0,10063065633,54.179688
10063067913,-0.7465607,-9.762716,0.22971097,10063067913,-0.002443461,-0.010995574,0.0012217305,10063067913,54.179688
10063070196,-0.74177504,-9.757931,0.22013968,10063070196,-0.0036651916,-0.010995574,0.0036651916,10063070196,54.179688
10063072476,-0.7465607,-9.772287,0.21535404,10063072476,-0.002443461,-0.008552114,0.0012217305,10063072476,54.179688
10063074756,-0.7513463,-9.777073,0.22492532,10063074756,-0.0012217305,-0.009773844,0.0012217305,10063074756,54.179688
10063077037,-0.74177504,-9.767502,0.22013968,10063077037,0,-0.012217305,0.002443461,10063077037,54.179688
10063079704,-0.7369894,-9.757931,0.22971097,10063079704,-0.004886922,-0.012217305,0.002443461,10063079704,54.214844
10063081605,-0.7369894,-9.772287,0.23449662,10063081605,-0.002443461,-0.010995574,0.002443461,10063081605,54.214844
10063083885,-0.7465607,-9.772287,0.21535404,10063083885,-0.002443461,-0.008552114,0.0012217305,10063083885,54.214844
10063086165,-0.7513463,-9.767502,0.22971097,10063086165,-0.0012217305,-0.008552114,0.0012217305,10063086165,54.214844
10063088446,-0.75613195,-9.777073,0.21535404,10063088446,-0.0012217305,-0.012217305,0.0012217305,10063088446,54.214844
10063090747,-0.75613195,-9.772287,0.22013968,10063090747,0,-0.010995574,0.0012217305,10063090747,54.214844
10063093027,-0.7513463,-9.767502,0.23928227,10063093027,0.0012217305,-0.010995574,-0.0012217305,10063093027,54.214844
10063095308,-0.7369894,-9.767502,0.21535404,10063095308,-0.004886922,-0.012217305,0.0012217305,10063095308,54.214844
10063097588,-0.7369894,-9.777073,0.22013968,10063097588,-0.0036651916,-0.012217305,0.0036651916,10063097588,54.164062
10063099859,-0.74177504,-9.772287,0.21535404,10063099859,-0.0012217305,-0.009773844,0.002443461,10063099859,54.164062
10063102140,-0.7369894,-9.781859,0.23449662,10063102140,-0.002443461,-0.009773844,0.002443461,10063102140,54.164062
10063104420,-0.7609176,-9.762716,0.21535404,10063104420,-0.0012217305,-0.012217305,0.002443461,10063104420,54.164062
10063106700,-0.76570326,-9.781859,0.21535404,10063106700,-0.002443461,-0.012217305,0.002443461,10063106700,54.164062
10063108980,-0.7609176,-9.772287,0.22013968,10063108980,-0.0036651916,-0.012217305,0,10063108980,54.164062
10063111272,-0.7513463,-9.762716,0.21535404,10063111272,-0.0012217305,-0.012217305,0.0012217305,10063111272,54.164062
10063113553,-0.75613195,-9.753145,0.22971097,10063113553,0.0012217305,-0.010995574,0.0012217305,10063113553,54.164062
10063115833,-0.7369894,-9.781859,0.2105684,10063115833,-0.0012217305,-0.012217305,0.002443461,10063115833,54.171875
10063118113,-0.72741807,-9.781859,0.23449662,10063118113,-0.0036651916,-0.009773844,0.0012217305,10063118113,54.171875
10063120387,-0.7322037,-9.762716,0.22013968,10063120387,-0.0036651916,-0.010995574,0.002443461,10063120387,54.171875
10063122667,-0.7369894,-9.79143,0.20578274,10063122667,-0.002443461,-0.009773844,0.002443461,10063122667,54.171875
10063124947,-0.75613195,-9.786645,0.22013968,10063124947,0.0012217305,-0.013439035,0.0036651916,10063124947,54.171875
10063127228,-0.7513463,-9.777073,0.19621146,10063127228,0,-0.009773844,0.0036651916,10063127228,54.171875
10063129701,-0.7465607,-9.777073,0.22492532,10063129701,0,-0.012217305,0,10063129701,54.171875
10063131816,-0.74177504,-9.762716,0.23449662,10063131816,-0.002443461,-0.008552114,0.0012217305,10063131816,54.171875
10063134096,-0.7322037,-9.79143,0.22013968,10063134096,-0.0012217305,-0.010995574,0.002443461,10063134096,54.148438
10063136376,-0.75613195,-9.777073,0.22971097,10063136376,-0.0036651916,-0.009773844,0.002443461,10063136376,54.148438
10063138656,-0.7369894,-9.757931,0.22971097,10063138656,-0.002443461,-0.010995574,0.002443461,10063138656,54.148438
10063140923,-0.7513463,-9.772287,0.22013968,10063140923,-0.002443461,-0.010995574,0.002443461,10063140923,54.148438
10063143204,-0.7704889,-9.781859,0.22492532,10063143204,-0.0012217305,-0.012217305,0.002443461,10063143204,54.148438
10063145484,-0.75613195,-9.777073,0.22971097,10063145484,0.002443461,-0.009773844,0.002443461,10063145484,54.148438
10063147764,-0.7513463,-9.777073,0.22971097,10063147764,0,-0.009773844,0.0036651916,10063147764,54.148438
10063150059,-0.74177504,-9.767502,0.23449662,10063150059,0,-0.010995574,0.002443461,10063150059,54.148438
10063152339,-0.76570326,-9.786645,0.21535404,10063152339,0.002443461,-0.013439035,0.0012217305,10063152339,54.23047
10063154619,-0.7704889,-9.772287,0.23928227,10063154619,-0.002443461,-0.008552114,0.002443461,10063154619,54.23047
10063156900,-0.7609176,-9.79143,0.23928227,10063156900,0,-0.009773844,0.0012217305,10063156900,54.23047
10063159180,-0.74177504,-9.762716,0.22492532,10063159180,0,-0.008552114,0.0012217305,10063159180,54.23047
10063161468,-0.7513463,-9.781859,0.22013968,10063161468,-0.002443461,-0.010995574,0.0036651916,10063161468,54.23047
10063163748,-0.7609176,-9.781859,0.23449662,10063163748,0,-0.007330383,0.002443461,10063163748,54.23047
10063166028,-0.7513463,-9.74836,0.22013968,10063166028,-0.0012217305,-0.009773844,0,10063166028,54.23047
10063168309,-0.7465607,-9.767502,0.24885355,10063168309,0,-0.007330383,0.002443461,10063168309,54.23047
10063170582,-0.7513463,-9.762716,0.23928227,10063170582,0.0012217305,-0.010995574,0.002443461,10063170582,54.171875
10063172863,-0.76570326,-9.777073,0.23449662,10063172863,0,-0.010995574,0.002443461,10063172863,54.171875
10063175143,-0.7513463,-9.777073,0.22013968,10063175143,-0.0012217305,-0.008552114,0,10063175143,54.171875
10063177423,-0.7513463,-9.786645,0.20578274,10063177423,0,-0.008552114,0.002443461,10063177423,54.171875
10063179739,-0.76570326,-9.777073,0.22492532,10063179739,-0.0012217305,-0.012217305,0.0012217305,10063179739,54.171875
10063181996,-0.7609176,-9.767502,0.22492532,10063181996,0,-0.008552114,0,10063181996,54.171875
10063184276,-0.7513463,-9.772287,0.23449662,10063184276,-0.002443461,-0.012217305,0,10063184276,54.171875
10063186557,-0.76570326,-9.781859,0.22013968,10063186557,-0.002443461,-0.010995574,0.002443461,10063186557,54.171875
10063188837,-0.74177504,-9.772287,0.22492532,10063188837,-0.0036651916,-0.012217305,0.0012217305,10063188837,54.23047
10063191130,-0.74177504,-9.777073,0.23928227,10063191130,-0.0036651916,-0.009773844,0.002443461,10063191130,54.23047
10063193410,-0.7369894,-9.781859,0.2536392,10063193410,-0.0012217305,-0.008552114,0.002443461,10063193410,54.23047
10063195691,-0.7465607,-9.772287,0.23928227,10063195691,0,-0.009773844,0.0012217305,10063195691,54.23047
10063197971,-0.72741807,-9.786645,0.22492532,10063197971,-0.0036651916,-0.010995574,0.002443461,10063197971,54.23047
10063200251,-0.76570326,-9.777073,0.21535404,10063200251,-0.0061086523,-0.009773844,0.002443461,10063200251,54.23047
10063202531,-0.75613195,-9.767502,0.21535404,10063202531,-0.0061086523,-0.010995574,0.002443461,10063202531,54.23047
10063204811,-0.7465607,-9.767502,0.22013968,10063204811,-0.0036651916,-0.012217305,0,10063204811,54.23047
10063207092,-0.7465607,-9.753145,0.26799613,10063207092,-0.0036651916,-0.010995574,0.002443461,10063207092,54.164062
10063209848,-0.7369894,-9.777073,0.2440679,10063209848,0,-0.012217305,0.0036651916,10063209848,54.164062
10063211654,-0.75613195,-9.762716,0.23449662,10063211654,0,-0.008552114,0.004886922,10063211654,54.164062
10063213934,-0.76570326,-9.767502,0.2440679,10063213934,0.0012217305,-0.010995574,0.002443461,10063213934,54.164062
10063216214,-0.7704889,-9.772287,0.22492532,10063216214,-0.0012217305,-0.008552114,0.002443461,10063216214,54.164062
10063218495,-0.75613195,-9.767502,0.22971097,10063218495,0,-0.010995574,0.0012217305,10063218495,54.164062
10063220788,-0.7465607,-9.767502,0.23449662,10063220788,0,-0.010995574,0.0036651916,10063220788,54.164062
10063223069,-0.76570326,-9.796216,0.22971097,10063223069,-0.0012217305,-0.012217305,0.002443461,10063223069,54.164062
10063225349,-0.7465607,-9.767502,0.22013968,10063225349,-0.002443461,-0.010995574,0.0012217305,10063225349,54.171875
10063227629,-0.7513463,-9.767502,0.22971097,10063227629,-0.0036651916,-0.010995574,0.002443461,10063227629,54.171875
10063229912,-0.7513463,-9.777073,0.22013968,10063229912,-0.002443461,-0.010995574,0.0012217305,10063229912,54.171875
10063232192,-0.7609176,-9.767502,0.2536392,10063232192,-0.0012217305,-0.012217305,0.0036651916,10063232192,54.171875
10063234472,-0.75613195,-9.767502,0.23928227,10063234472,0,-0.010995574,0.0036651916,10063234472,54.171875
10063236753,-0.7465607,-9.777073,0.21535404,10063236753,-0.0012217305,-0.012217305,0.0012217305,10063236753,54.171875
10063239033,-0.75613195,-9.79143,0.22492532,10063239033,-0.0012217305,-0.013439035,0.0012217305,10063239033,54.171875
10063241313,-0.7609176,-9.801002,0.23928227,10063241313,0,-0.010995574,0,10063241313,54.171875
10063243593,-0.7465607,-9.772287,0.2440679,10063243593,-0.002443461,-0.014660766,0.0012217305,10063243593,54.171875
10063245874,-0.7465607,-9.767502,0.2440679,10063245874,0.002443461,-0.010995574,0.002443461,10063245874,54.171875
10063248154,-0.7369894,-9.767502,0.24885355,10063248154,-0.0012217305,-0.010995574,0.002443461,10063248154,54.171875
10063250431,-0.7465607,-9.762716,0.25842485,10063250431,-0.0036651916,-0.012217305,0.002443461,10063250431,54.171875
10063252712,-0.74177504,-9.767502,0.23928227,10063252712,-0.002443461,-0.012217305,0.002443461,10063252712,54.171875
10063254992,-0.7369894,-9.781859,0.23928227,10063254992,-0.0012217305,-0.013439035,0.002443461,10063254992,54.171875
10063257272,-0.7322037,-9.767502,0.22971097,10063257272,-0.0012217305,-0.010995574,0.0012217305,10063257272,54.171875
10063259704,-0.7465607,-9.762716,0.23449662,10063259704,-0.002443461,-0.013439035,0.0036651916,10063259704,54.171875
10063261842,-0.7513463,-9.777073,0.22492532,10063261842,-0.002443461,-0.009773844,0.0036651916,10063261842,54.234375
10063264123,-0.7322037,-9.762716,0.22013968,10063264123,-0.002443461,-0.012217305,0.0012217305,10063264123,54.234375
10063266403,-0.7465607,-9.767502,0.22013968,10063266403,-0.0036651916,-0.012217305,0,10063266403,54.234375
10063268683,-0.7513463,-9.781859,0.21535404,10063268683,-0.0012217305,-0.013439035,0.002443461,10063268683,54.234375
10063270969,-0.7322037,-9.777073,0.23928227,10063270969,-0.0012217305,-0.013439035,0.002443461,10063270969,54.234375
10063273249,-0.7369894,-9.777073,0.2440679,10063273249,-0.002443461,-0.010995574,0.0036651916,10063273249,54.234375
10063275529,-0.75613195,-9.772287,0.22971097,10063275529,0,-0.012217305,0.0036651916,10063275529,54.234375
10063277810,-0.75613195,-9.762716,0.22971097,10063277810,-0.0012217305,-0.009773844,0.0012217305,10063277810,54.234375
10063280109,-0.75613195,-9.786645,0.2009971,10063280109,-0.0012217305,-0.012217305,0.0012217305,10063280109,54.14453
10063282390,-0.7513463,-9.777073,0.22492532,10063282390,-0.0012217305,-0.010995574,0.004886922,10063282390,54.14453
10063284670,-0.7369894,-9.79143,0.23928227,10063284670,-0.002443461,-0.013439035,0.002443461,10063284670,54.14453
10063286950,-0.74177504,-9.777073,0.23449662,10063286950,-0.002443461,-0.012217305,0.002443461,10063286950,54.14453
10063289837,-0.7513463,-9.762716,0.22013968,10063289837,-0.002443461,-0.014660766,0.002443461,10063289837,54.14453
10063291500,-0.75613195,-9.777073,0.22492532,10063291500,0.0012217305,-0.013439035,0,10063291500,54.14453
10063293780,-0.7513463,-9.781859,0.22492532,10063293780,-0.0061086523,-0.017104227,0.0036651916,10063293780,54.14453
10063296061,-0.76570326,-9.753145,0.23449662,10063296061,0,-0.015882496,0.0012217305,10063296061,54.14453
10063298341,-0.7513463,-9.772287,0.22013968,10063298341,-0.0012217305,-0.012217305,0,10063298341,54.164062
10063300634,-0.7752745,-9.767502,0.22013968,10063300634,0,-0.013439035,0.0012217305,10063300634,54.164062
10063302915,-0.7609176,-9.781859,0.2440679,10063302915,-0.002443461,-0.010995574,0.0012217305,10063302915,54.164062
10063305195,-0.7513463,-9.757931,0.23449662,10063305195,-0.0012217305,-0.014660766,0.0012217305,10063305195,54.164062
10063307475,-0.7704889,-9.781859,0.23449662,10063307475,-0.002443461,-0.012217305,0.002443461,10063307475,54.164062
10063309759,-0.7513463,-9.762716,0.21535404,10063309759,-0.0036651916,-0.010995574,0.002443461,10063309759,54.164062
10063312039,-0.74177504,-9.781859,0.22492532,10063312039,-0.004886922,-0.012217305,0.004886922,10063312039,54.164062
10063314320,-0.7465607,-9.767502,0.22013968,10063314320,-0.002443461,-0.013439035,0.0036651916,10063314320,54.164062
10063316600,-0.7513463,-9.796216,0.22492532,10063316600,-0.002443461,-0.014660766,0.002443461,10063316600,54.164062
10063318880,-0.7465607,-9.757931,0.23449662,10063318880,-0.0036651916,-0.013439035,0.002443461,10063318880,54.164062
10063321182,-0.74177504,-9.777073,0.21535404,10063321182,-0.002443461,-0.013439035,0.002443461,10063321182,54.164062
10063323462,-0.72263247,-9.757931,0.22013968,10063323462,-0.0012217305,-0.010995574,0.004886922,10063323462,54.164062
10063325742,-0.74177504,-9.781859,0.22971097,10063325742,-0.0012217305,-0.015882496,0.0012217305,10063325742,54.164062
10063328023,-0.74177504,-9.781859,0.23449662,10063328023,-0.0012217305,-0.013439035,0.002443461,10063328023,54.164062
10063330296,-0.7513463,-9.767502,0.2105684,10063330296,-0.0036651916,-0.012217305,0.0012217305,10063330296,54.164062
10063332577,-0.7513463,-9.757931,0.23449662,10063332577,-0.0012217305,-0.013439035,0.0012217305,10063332577,54.164062
10063334857,-0.7322037,-9.753145,0.22492532,10063334857,-0.0012217305,-0.012217305,0.002443461,10063334857,54.171875
10063337137,-0.74177504,-9.777073,0.22013968,10063337137,-0.0012217305,-0.012217305,0.0012217305,10063337137,54.171875
10063339746,-0.7369894,-9.777073,0.2009971,10063339746,-0.002443461,-0.010995574,0.0012217305,10063339746,54.171875
10063341694,-0.74177504,-9.786645,0.20578274,10063341694,-0.0012217305,-0.012217305,0.002443461,10063341694,54.171875
10063343975,-0.7369894,-9.781859,0.22492532,10063343975,-0.0036651916,-0.012217305,0.002443461,10063343975,54.171875
10063346255,-0.7369894,-9.753145,0.2105684,10063346255,-0.0036651916,-0.010995574,0.0012217305,10063346255,54.171875
10063348535,-0.74177504,-9.781859,0.20578274,10063348535,-0.0061086523,-0.010995574,0.002443461,10063348535,54.171875
10063350841,-0.7513463,-9.781859,0.19142582,10063350841,-0.004886922,-0.014660766,0.0012217305,10063350841,54.171875
10063353121,-0.7513463,-9.772287,0.22971097,10063353121,-0.0012217305,-0.010995574,0,10063353121,54.164062
10063355401,-0.7369894,-9.74836,0.22492532,10063355401,-0.002443461,-0.010995574,0.0012217305,10063355401,54.164062
10063357682,-0.7513463,-9.777073,0.21535404,10063357682,0,-0.012217305,0.004886922,10063357682,54.164062
10063359954,-0.7609176,-9.767502,0.21535404,10063359954,-0.0012217305,-0.010995574,0.0012217305,10063359954,54.164062
10063362235,-0.75613195,-9.762716,0.22492532,10063362235,-0.0012217305,-0.012217305,0.0012217305,10063362235,54.164062
10063364515,-0.7609176,-9.772287,0.2105684,10063364515,0.0012217305,-0.012217305,0.0012217305,10063364515,54.164062
10063366795,-0.7369894,-9.762716,0.20578274,10063366795,0.0012217305,-0.012217305,0.002443461,10063366795,54.164062
10063369075,-0.75613195,-9.762716,0.2009971,10063369075,0,-0.010995574,0.0036651916,10063369075,54.164062
10063371361,-0.74177504,-9.777073,0.22013968,10063371361,-0.0061086523,-0.010995574,0.002443461,10063371361,54.23047
10063373642,-0.75613195,-9.767502,0.22013968,10063373642,0,-0.010995574,0.002443461,10063373642,54.23047
10063375922,-0.7465607,-9.781859,0.2105684,10063375922,-0.004886922,-0.010995574,0.002443461,10063375922,54.23047
10063378202,-0.7369894,-9.777073,0.20578274,10063378202,-0.0036651916,-0.010995574,0.0012217305,10063378202,54.23047
10063380480,-0.74177504,-9.762716,0.22013968,10063380480,-0.002443461,-0.008552114,0,10063380480,54.23047
10063382760,-0.7465607,-9.781859,0.22013968,10063382760,-0.0012217305,-0.008552114,0.0012217305,10063382760,54.23047
10063385040,-0.75613195,-9.762716,0.2105684,10063385040,0.0012217305,-0.008552114,0.0036651916,10063385040,54.23047
10063387321,-0.7609176,-9.757931,0.23449662,10063387321,-0.002443461,-0.012217305,0.0012217305,10063387321,54.23047
10063389700,-0.7513463,-9.777073,0.20578274,10063389700,-0.0012217305,-0.012217305,0.002443461,10063389700,54.171875
10063391886,-0.74177504,-9.772287,0.22492532,10063391886,-0.0012217305,-0.012217305,0.0012217305,10063391886,54.171875
10063394166,-0.7609176,-9.777073,0.22971097,10063394166,-0.0012217305,-0.010995574,0.0036651916,10063394166,54.171875
10063396446,-0.7369894,-9.777073,0.22492532,10063396446,-0.002443461,-0.008552114,0.002443461,10063396446,54.171875
10063398727,-0.7513463,-9.767502,0.22013968,10063398727,-0.0012217305,-0.008552114,0.002443461,10063398727,54.171875
10063401015,-0.7513463,-9.767502,0.2105684,10063401015,-0.0012217305,-0.008552114,0.0012217305,10063401015,54.171875
10063403296,-0.7513463,-9.767502,0.22971097,10063403296,-0.002443461,-0.012217305,0.002443461,10063403296,54.171875
10063405576,-0.7513463,-9.786645,0.22013968,10063405576,0,-0.012217305,0.002443461,10063405576,54.171875
10063407856,-0.75613195,-9.772287,0.22492532,10063407856,0,-0.012217305,0.0012217305,10063407856,54.171875
10063410157,-0.75613195,-9.772287,0.23928227,10063410157,0.002443461,-0.012217305,0.0012217305,10063410157,54.171875
10063412438,-0.7609176,-9.767502,0.22013968,10063412438,0.002443461,-0.013439035,0.002443461,10063412438,54.171875
10063414718,-0.75613195,-9.772287,0.22013968,10063414718,-0.004886922,-0.009773844,0.002443461,10063414718,54.171875
10063416998,-0.74177504,-9.762716,0.2440679,10063416998,-0.004886922,-0.010995574,0.0012217305,10063416998,54.171875
10063419705,-0.74177504,-9.777073,0.22492532,10063419705,-0.0012217305,-0.009773844,0.0012217305,10063419705,54.171875
10063421558,-0.74177504,-9.767502,0.22013968,10063421558,-0.0012217305,-0.013439035,0,10063421558,54.171875
10063423839,-0.7369894,-9.762716,0.2105684,10063423839,-0.0036651916,-0.012217305,0.002443461,10063423839,54.171875
10063426119,-0.74177504,-9.772287,0.22013968,10063426119,-0.002443461,-0.012217305,0.002443461,10063426119,54.179688
10063428399,-0.75613195,-9.777073,0.23928227,10063428399,-0.004886922,-0.012217305,0.002443461,10063428399,54.179688
10063430678,-0.7609176,-9.781859,0.22971097,10063430678,-0.002443461,-0.010995574,0.0036651916,10063430678,54.179688
10063432958,-0.7513463,-9.767502,0.22013968,10063432958,0.0012217305,-0.012217305,0.002443461,10063432958,54.179688
10063435238,-0.7465607,-9.772287,0.23449662,10063435238,-0.002443461,-0.012217305,0.0012217305,10063435238,54.179688
10063437519,-0.7609176,-9.772287,0.2440679,10063437519,-0.002443461,-0.010995574,0.0012217305,10063437519,54.179688
10063439802,-0.7369894,-9.777073,0.22492532,10063439802,-0.004886922,-0.009773844,0.002443461,10063439802,54.179688
10063442082,-0.7322037,-9.772287,0.22971097,10063442082,-0.004886922,-0.012217305,0.0036651916,10063442082,54.179688
10063444362,-0.76570326,-9.772287,0.22013968,10063444362,0,-0.010995574,0.0012217305,10063444362,54.140625
10063446642,-0.7609176,-9.767502,0.20578274,10063446642,0,-0.010995574,0.0012217305,10063446642,54.140625
10063448923,-0.75613195,-9.772287,0.23928227,10063448923,0.0012217305,-0.012217305,0.0012217305,10063448923,54.140625
10063451206,-0.7609176,-9.762716,0.2105684,10063451206,-0.0012217305,-0.009773844,0.0012217305,10063451206,54.140625
10063453487,-0.75613195,-9.772287,0.21535404,10063453487,-0.0036651916,-0.010995574,0.0036651916,10063453487,54.140625
10063455767,-0.7369894,-9.781859,0.22013968,10063455767,-0.0012217305,-0.010995574,0.0036651916,10063455767,54.140625
10063458047,-0.7465607,-9.757931,0.2105684,10063458047,-0.0012217305,-0.012217305,0.0012217305,10063458047,54.140625
10063460347,-0.7704889,-9.767502,0.2105684,10063460347,-0.002443461,-0.012217305,0.0036651916,10063460347,54.140625
10063462627,-0.7513463,-9.79143,0.22013968,10063462627,0,-0.008552114,0.002443461,10063462627,54.1875
10063464907,-0.75613195,-9.772287,0.22971097,10063464907,0,-0.013439035,0.0012217305,10063464907,54.1875
10063467188,-0.74177504,-9.762716,0.23928227,10063467188,0.002443461,-0.010995574,0.0012217305,10063467188,54.1875
10063469843,-0.72741807,-9.767502,0.23928227,10063469843,0,-0.012217305,0.0012217305,10063469843,54.1875
10063471744,-0.7465607,-9.772287,0.22971097,10063471744,0.0012217305,-0.012217305,0.002443461,10063471744,54.1875
10063474024,-0.7465607,-9.767502,0.22492532,10063474024,-0.0012217305,-0.008552114,0.0012217305,10063474024,54.1875
10063476304,-0.7609176,-9.762716,0.23449662,10063476304,-0.002443461,-0.013439035,0.002443461,10063476304,54.1875
10063478585,-0.7609176,-9.777073,0.23928227,10063478585,-0.004886922,-0.012217305,0.0036651916,10063478585,54.1875
10063480885,-0.7322037,-9.772287,0.22013968,10063480885,-0.0012217305,-0.012217305,0.0036651916,10063480885,54.171875
10063483166,-0.7178468,-9.762716,0.21535404,10063483166,-0.0012217305,-0.009773844,0.0036651916,10063483166,54.171875
10063485446,-0.7369894,-9.767502,0.23928227,10063485446,-0.0036651916,-0.009773844,0.002443461,10063485446,54.171875
10063487726,-0.7752745,-9.777073,0.21535404,10063487726,-0.0036651916,-0.012217305,0.002443461,10063487726,54.171875
10063490006,-0.75613195,-9.772287,0.22971097,10063490006,-0.0036651916,-0.009773844,0,10063490006,54.171875
10063492286,-0.7609176,-9.772287,0.22492532,10063492286,0.002443461,-0.014660766,0.0012217305,10063492286,54.171875
10063494566,-0.7609176,-9.762716,0.2105684,10063494566,0.002443461,-0.012217305,0,10063494566,54.171875
10063496847,-0.76570326,-9.772287,0.22492532,10063496847,-0.002443461,-0.012217305,0.0012217305,10063496847,54.171875
10063499127,-0.75613195,-9.757931,0.2105684,10063499127,-0.002443461,-0.012217305,0,10063499127,54.20703
10063501416,-0.7609176,-9.767502,0.22492532,10063501416,-0.0061086523,-0.010995574,0,10063501416,54.20703
10063503696,-0.75613195,-9.757931,0.22013968,10063503696,-0.0061086523,-0.013439035,0.0012217305,10063503696,54.20703
10063505977,-0.7609176,-9.781859,0.22013968,10063505977,-0.0012217305,-0.009773844,0.0036651916,10063505977,54.20703
10063508257,-0.7322037,-9.772287,0.20578274,10063508257,-0.002443461,-0.012217305,0.0012217305,10063508257,54.20703
10063510544,-0.74177504,-9.772287,0.2105684,10063510544,-0.0012217305,-0.013439035,0.0012217305,10063510544,54.20703
10063512824,-0.7609176,-9.777073,0.21535404,10063512824,0,-0.012217305,0.0036651916,10063512824,54.20703
10063515104,-0.7609176,-9.767502,0.21535404,10063515104,0.0012217305,-0.012217305,0.0036651916,10063515104,54.20703
10063517385,-0.74177504,-9.772287,0.22013968,10063517385,-0.002443461,-0.010995574,0.0036651916,10063517385,54.164062
10063519742,-0.74177504,-9.762716,0.19621146,10063519742,-0.0036651916,-0.013439035,0.002443461,10063519742,54.164062
10063521952,-0.7322037,-9.767502,0.19621146,10063521952,-0.0012217305,-0.012217305,0.0036651916,10063521952,54.164062
10063524232,-0.75613195,-9.777073,0.22492532,10063524232,-0.002443461,-0.009773844,0.002443461,10063524232,54.164062
10063526512,-0.7513463,-9.777073,0.22971097,10063526512,-0.0036651916,-0.013439035,0,10063526512,54.164062
10063528792,-0.7369894,-9.777073,0.21535404,10063528792,0,-0.009773844,0.0012217305,10063528792,54.164062
10063531070,-0.7465607,-9.767502,0.22013968,10063531070,-0.0012217305,-0.010995574,0.002443461,10063531070,54.164062
10063533350,-0.74177504,-9.781859,0.20578274,10063533350,-0.0012217305,-0.009773844,0.0036651916,10063533350,54.164062
10063535630,-0.7369894,-9.753145,0.20578274,10063535630,-0.0012217305,-0.010995574,0.002443461,10063535630,54.214844
10063537910,-0.75613195,-9.79143,0.2009971,10063537910,-0.002443461,-0.009773844,0.002443461,10063537910,54.214844
10063540195,-0.74177504,-9.767502,0.21535404,10063540195,-0.0036651916,-0.008552114,0.002443461,10063540195,54.214844
10063542475,-0.75613195,-9.781859,0.22013968,10063542475,0.0012217305,-0.009773844,0.002443461,10063542475,54.214844
10063544755,-0.7513463,-9.781859,0.2105684,10063544755,0.0012217305,-0.010995574,0.002443461,10063544755,54.214844
10063547036,-0.7513463,-9.772287,0.20578274,10063547036,-0.0012217305,-0.012217305,0.0012217305,10063547036,54.214844
10063549700,-0.7513463,-9.757931,0.21535404,10063549700,-0.0012217305,-0.012217305,0.0036651916,10063549700,54.214844
10063551601,-0.7465607,-9.786645,0.2009971,10063551601,-0.0012217305,-0.008552114,0.0012217305,10063551601,54.214844
10063553881,-0.7369894,-9.767502,0.21535404,10063553881,0,-0.009773844,0.002443461,10063553881,54.19922
10063556161,-0.75613195,-9.772287,0.21535404,10063556161,0.002443461,-0.008552114,0.0012217305,10063556161,54.19922
10063558442,-0.74177504,-9.772287,0.2105684,10063558442,-0.002443461,-0.009773844,0,10063558442,54.19922
10063560728,-0.7369894,-9.777073,0.2105684,10063560728,-0.002443461,-0.010995574,0.002443461,10063560728,54.19922
10063563009,-0.74177504,-9.781859,0.22492532,10063563009,-0.004886922,-0.008552114,0.0012217305,10063563009,54.19922
10063565289,-0.7322037,-9.772287,0.23928227,10063565289,-0.0036651916,-0.009773844,0.0012217305,10063565289,54.19922
10063567569,-0.75613195,-9.762716,0.19621146,10063567569,0,-0.008552114,0.002443461,10063567569,54.19922
10063569846,-0.75613195,-9.777073,0.22492532,10063569846,0.0012217305,-0.010995574,0.0036651916,10063569846,54.19922
10063572126,-0.7465607,-9.772287,0.21535404,10063572126,0,-0.008552114,0.0036651916,10063572126,54.164062
10063574407,-0.7322037,-9.762716,0.2440679,10063574407,-0.0012217305,-0.008552114,0.0036651916,10063574407,54.164062
10063576687,-0.7609176,-9.767502,0.2105684,10063576687,0,-0.009773844,0.002443461,10063576687,54.164062
10063578967,-0.76570326,-9.777073,0.22971097,10063578967,-0.0012217305,-0.010995574,0.002443461,10063578967,54.164062
10063581253,-0.7513463,-9.781859,0.2105684,10063581253,-0.0061086523,-0.008552114,0.002443461,10063581253,54.164062
10063583533,-0.75613195,-9.786645,0.22492532,10063583533,-0.002443461,-0.009773844,0,10063583533,54.164062
10063585813,-0.7369894,-9.781859,0.23449662,10063585813,0.0012217305,-0.008552114,0.0036651916,10063585813,54.164062
10063588094,-0.75613195,-9.786645,0.23449662,10063588094,-0.0012217305,-0.009773844,0.0036651916,10063588094,54.164062
10063590395,-0.7609176,-9.772287,0.2536392,10063590395,0.002443461,-0.007330383,0.0036651916,10063590395,54.171875
10063592676,-0.76570326,-9.781859,0.23928227,10063592676,0,-0.009773844,0.0012217305,10063592676,54.171875
10063594956,-0.75613195,-9.772287,0.2105684,10063594956,-0.0012217305,-0.010995574,0.0012217305,10063594956,54.171875
10063597236,-0.7704889,-9.762716,0.22971097,10063597236,0,-0.008552114,0,10063597236,54.171875
10063599743,-0.7513463,-9.777073,0.22971097,10063599743,-0.0012217305,-0.010995574,0.002443461,10063599743,54.171875
10063601786,-0.75613195,-9.757931,0.22492532,10063601786,-0.002443461,-0.010995574,0.002443461,10063601786,54.171875
10063604067,-0.7465607,-9.767502,0.22492532,10063604067,0,-0.012217305,0.0012217305,10063604067,54.171875
10063606347,-0.76570326,-9.753145,0.19621146,10063606347,0,-0.010995574,0.002443461,10063606347,54.171875
10063608627,-0.7322037,-9.772287,0.22492532,10063608627,-0.0036651916,-0.009773844,0.002443461,10063608627,54.171875
10063610932,-0.7465607,-9.767502,0.22971097,10063610932,-0.0036651916,-0.009773844,0.002443461,10063610932,54.171875
10063613213,-0.7609176,-9.772287,0.23928227,10063613213,-0.002443461,-0.009773844,0.0036651916,10063613213,54.171875
10063615493,-0.7465607,-9.772287,0.2440679,10063615493,-0.0036651916,-0.009773844,0.002443461,10063615493,54.171875
10063617773,-0.76570326,-9.772287,0.2440679,10063617773,-0.002443461,-0.009773844,0.002443461,10063617773,54.171875
10063620042,-0.75613195,-9.79143,0.23449662,10063620042,-0.0036651916,-0.010995574,0.002443461,10063620042,54.171875
10063622322,-0.75613195,-9.767502,0.22492532,10063622322,-0.0012217305,-0.012217305,0.002443461,10063622322,54.171875
10063624603,-0.7322037,-9.777073,0.23928227,10063624603,-0.0012217305,-0.012217305,0.002443461,10063624603,54.171875
10063626883,-0.7465607,-9.762716,0.22971097,10063626883,-0.004886922,-0.010995574,0.002443461,10063626883,54.1875
10063629163,-0.7752745,-9.777073,0.23449662,10063629163,-0.002443461,-0.010995574,0.0012217305,10063629163,54.1875
10063631462,-0.7704889,-9.781859,0.25842485,10063631462,-0.0012217305,-0.012217305,0,10063631462,54.1875
10063633742,-0.7513463,-9.772287,0.24885355,10063633742,-0.002443461,-0.009773844,0.002443461,10063633742,54.1875
10063636022,-0.7465607,-9.757931,0.25842485,10063636022,-0.0012217305,-0.012217305,0.0036651916,10063636022,54.1875
10063638303,-0.76570326,-9.762716,0.23449662,10063638303,-0.0012217305,-0.012217305,0.0036651916,10063638303,54.1875
10063640588,-0.7513463,-9.781859,0.2440679,10063640588,-0.002443461,-0.008552114,0.002443461,10063640588,54.1875
10063642869,-0.7513463,-9.781859,0.23928227,10063642869,-0.0012217305,-0.009773844,0.002443461,10063642869,54.1875
10063645149,-0.7609176,-9.777073,0.2440679,10063645149,-0.0036651916,-0.010995574,0.002443461,10063645149,54.19922
10063647429,-0.74177504,-9.762716,0.2440679,10063647429,-0.0036651916,-0.012217305,0.0012217305,10063647429,54.19922
10063649837,-0.7609176,-9.753145,0.23449662,10063649837,-0.0012217305,-0.009773844,0.002443461,10063649837,54.19922
10063651999,-0.7465607,-9.801002,0.23449662,10063651999,0.0012217305,-0.008552114,0.0036651916,10063651999,54.19922
10063654279,-0.74177504,-9.772287,0.24885355,10063654279,0,-0.010995574,0.002443461,10063654279,54.19922
10063656560,-0.7609176,-9.777073,0.23449662,10063656560,-0.002443461,-0.009773844,0.0012217305,10063656560,54.19922
10063658840,-0.7513463,-9.772287,0.2440679,10063658840,-0.0036651916,-0.012217305,0.0012217305,10063658840,54.19922
10063661124,-0.7609176,-9.762716,0.2440679,10063661124,-0.004886922,-0.008552114,0.002443461,10063661124,54.19922
10063663404,-0.7513463,-9.772287,0.20578274,10063663404,-0.0036651916,-0.009773844,0.002443461,10063663404,54.164062
10063665684,-0.74177504,-9.772287,0.25842485,10063665684,-0.0012217305,-0.012217305,0.0012217305,10063665684,54.164062
10063667965,-0.7704889,-9.781859,0.2632105,10063667965,-0.0012217305,-0.012217305,0.0036651916,10063667965,54.164062
10063670246,-0.7609176,-9.772287,0.23449662,10063670246,0,-0.012217305,0.0012217305,10063670246,54.164062
10063672527,-0.7465607,-9.777073,0.22013968,10063672527,0.0012217305,-0.013439035,0,10063672527,54.164062
10063674807,-0.7513463,-9.777073,0.20578274,10063674807,0.0012217305,-0.010995574,0.002443461,10063674807,54.164062
10063677087,-0.7465607,-9.781859,0.23928227,10063677087,-0.002443461,-0.012217305,0.002443461,10063677087,54.164062
10063679705,-0.7513463,-9.786645,0.22971097,10063679705,-0.002443461,-0.012217305,0.002443461,10063679705,54.164062
10063681653,-0.74177504,-9.777073,0.23449662,10063681653,-0.0036651916,-0.017104227,0.0012217305,10063681653,54.15625
10063683934,-0.74177504,-9.777073,0.23449662,10063683934,-0.0012217305,-0.014660766,0,10063683934,54.15625
10063686214,-0.7465607,-9.762716,0.23928227,10063686214,-0.002443461,-0.012217305,0.002443461,10063686214,54.15625
10063688494,-0.74177504,-9.767502,0.23449662,10063688494,-0.0036651916,-0.013439035,0.0012217305,10063688494,54.15625
10063690780,-0.7465607,-9.762716,0.22971097,10063690780,-0.0012217305,-0.010995574,0.002443461,10063690780,54.15625
10063693060,-0.75613195,-9.777073,0.2440679,10063693060,-0.0036651916,-0.010995574,0.002443461,10063693060,54.15625
10063695340,-0.75613195,-9.762716,0.22013968,10063695340,-0.002443461,-0.014660766,0,10063695340,54.15625
10063697621,-0.74177504,-9.777073,0.23449662,10063697621,-0.0036651916,-0.010995574,0.0012217305,10063697621,54.15625
10063699900,-0.7465607,-9.772287,0.19142582,10063699900,-0.0036651916,-0.010995574,0,10063699900,54.164062
10063702180,-0.7609176,-9.762716,0.2009971,10063702180,-0.0036651916,-0.013439035,0,10063702180,54.164062
10063704460,-0.75613195,-9.762716,0.22492532,10063704460,-0.0036651916,-0.013439035,0.0012217305,10063704460,54.164062
10063706740,-0.7465607,-9.786645,0.22971097,10063706740,-0.0012217305,-0.013439035,0.0036651916,10063706740,54.164062
10063709021,-0.7513463,-9.772287,0.22971097,10063709021,-0.002443461,-0.012217305,0.0036651916,10063709021,54.164062
10063711312,-0.7465607,-9.753145,0.22013968,10063711312,-0.002443461,-0.013439035,0.0012217305,10063711312,54.164062
10063713593,-0.7369894,-9.767502,0.22971097,10063713593,-0.0012217305,-0.013439035,0.0036651916,10063713593,54.164062
10063715873,-0.7513463,-9.767502,0.23449662,10063715873,-0.002443461,-0.010995574,0.002443461,10063715873,54.164062
10063718153,-0.7465607,-9.772287,0.2440679,10063718153,-0.0012217305,-0.014660766,0.002443461,10063718153,54.171875
10063720433,-0.7609176,-9.781859,0.24885355,10063720433,-0.0012217305,-0.013439035,0.002443461,10063720433,54.171875
10063722714,-0.7704889,-9.762716,0.23449662,10063722714,-0.0036651916,-0.013439035,0.0036651916,10063722714,54.171875
10063724994,-0.7513463,-9.781859,0.22971097,10063724994,-0.004886922,-0.013439035,0.0012217305,10063724994,54.171875
10063727274,-0.7465607,-9.777073,0.22492532,10063727274,-0.002443461,-0.013439035,0.0036651916,10063727274,54.171875
10063729703,-0.7609176,-9.781859,0.22971097,10063729703,-0.002443461,-0.013439035,0.002443461,10063729703,54.171875
10063731841,-0.7465607,-9.767502,0.22971097,10063731841,-0.0036651916,-0.014660766,0.0012217305,10063731841,54.171875
10063734122,-0.7513463,-9.767502,0.23928227,10063734122,0.0012217305,-0.012217305,0.0036651916,10063734122,54.171875
10063736402,-0.7322037,-9.777073,0.22492532,10063736402,0.0012217305,-0.013439035,0.002443461,10063736402,54.164062
10063738682,-0.7513463,-9.781859,0.23449662,10063738682,-0.002443461,-0.012217305,0.0036651916,10063738682,54.164062
10063740967,-0.7465607,-9.781859,0.23928227,10063740967,-0.002443461,-0.010995574,0.0036651916,10063740967,54.164062
10063743247,-0.7513463,-9.767502,0.21535404,10063743247,0,-0.012217305,0.004886922,10063743247,54.164062
10063745527,-0.7322037,-9.767502,0.22492532,10063745527,-0.0036651916,-0.013439035,0.002443461,10063745527,54.164062
10063747808,-0.7609176,-9.762716,0.22492532,10063747808,-0.0061086523,-0.010995574,0.0012217305,10063747808,54.164062
10063750107,-0.7465607,-9.777073,0.22013968,10063750107,0,-0.012217305,0.0012217305,10063750107,54.164062
10063752388,-0.75613195,-9.767502,0.21535404,10063752388,-0.002443461,-0.010995574,0.0012217305,10063752388,54.164062
10063754668,-0.76570326,-9.757931,0.21535404,10063754668,-0.0036651916,-0.012217305,0.0012217305,10063754668,54.19922
10063756948,-0.75613195,-9.74836,0.22492532,10063756948,-0.0012217305,-0.012217305,0.0012217305,10063756948,54.19922
10063759228,-0.75613195,-9.772287,0.22013968,10063759228,-0.0036651916,-0.010995574,0.002443461,10063759228,54.19922
10063761514,-0.75613195,-9.762716,0.22971097,10063761514,-0.002443461,-0.014660766,0,10063761514,54.19922
10063763794,-0.75613195,-9.757931,0.22013968,10063763794,-0.002443461,-0.013439035,0.002443461,10063763794,54.19922
10063766075,-0.75613195,-9.777073,0.22971097,10063766075,-0.002443461,-0.013439035,0.0012217305,10063766075,54.19922
10063768355,-0.7465607,-9.762716,0.21535404,10063768355,-0.0012217305,-0.014660766,0.0012217305,10063768355,54.19922
10063770630,-0.76570326,-9.74836,0.23928227,10063770630,-0.0036651916,-0.013439035,0.002443461,10063770630,54.19922
10063772910,-0.7369894,-9.772287,0.21535404,10063772910,-0.0036651916,-0.010995574,0.0012217305,10063772910,54.171875
10063775190,-0.7369894,-9.781859,0.22013968,10063775190,-0.002443461,-0.010995574,0,10063775190,54.171875
10063777471,-0.7513463,-9.786645,0.22013968,10063777471,-0.002443461,-0.010995574,0.002443461,10063777471,54.171875
10063779767,-0.7704889,-9.772287,0.23449662,10063779767,-0.0036651916,-0.013439035,0.0012217305,10063779767,54.171875
10063782048,-0.7465607,-9.772287,0.22492532,10063782048,-0.002443461,-0.012217305,0.002443461,10063782048,54.171875
10063784328,-0.7752745,-9.772287,0.22971097,10063784328,0,-0.012217305,0.002443461,10063784328,54.171875
10063786608,-0.75613195,-9.786645,0.22971097,10063786608,-0.0012217305,-0.012217305,0.002443461,10063786608,54.171875
10063788888,-0.7609176,-9.767502,0.22013968,10063788888,-0.002443461,-0.013439035,0.002443461,10063788888,54.171875
10063791171,-0.74177504,-9.805787,0.21535404,10063791171,-0.0036651916,-0.008552114,0.002443461,10063791171,54.171875
10063793452,-0.7465607,-9.777073,0.22971097,10063793452,0,-0.013439035,0.0036651916,10063793452,54.171875
10063795732,-0.7704889,-9.762716,0.22492532,10063795732,-0.0012217305,-0.010995574,0.002443461,10063795732,54.171875
10063798012,-0.7465607,-9.777073,0.23449662,10063798012,-0.004886922,-0.012217305,0.002443461,10063798012,54.171875
10063800290,-0.74177504,-9.767502,0.2440679,10063800290,-0.004886922,-0.012217305,0.0012217305,10063800290,54.171875
10063802570,-0.75613195,-9.777073,0.22492532,10063802570,-0.0012217305,-0.008552114,0.0036651916,10063802570,54.171875
10063804850,-0.7513463,-9.767502,0.22013968,10063804850,-0.0012217305,-0.012217305,0.0012217305,10063804850,54.171875
10063807131,-0.7513463,-9.781859,0.2009971,10063807131,0,-0.010995574,0.002443461,10063807131,54.171875
10063809713,-0.7609176,-9.762716,0.22492532,10063809713,-0.0036651916,-0.010995574,0.002443461,10063809713,54.164062
10063811685,-0.7609176,-9.781859,0.22492532,10063811685,-0.002443461,-0.010995574,0.0012217305,10063811685,54.164062
10063813965,-0.74177504,-9.777073,0.22492532,10063813965,-0.002443461,-0.009773844,0.0012217305,10063813965,54.164062
10063816246,-0.7513463,-9.767502,0.23928227,10063816246,-0.004886922,-0.010995574,0.002443461,10063816246,54.164062
10063818526,-0.75613195,-9.772287,0.22013968,10063818526,-0.0012217305,-0.013439035,0.002443461,10063818526,54.164062
10063820826,-0.76570326,-9.762716,0.22492532,10063820826,0,-0.012217305,0.002443461,10063820826,54.164062
10063823107,-0.76570326,-9.767502,0.2105684,10063823107,-0.0012217305,-0.013439035,0.002443461,10063823107,54.164062
10063825387,-0.7465607,-9.757931,0.22971097,10063825387,-0.002443461,-0.009773844,0.002443461,10063825387,54.164062
10063827667,-0.7369894,-9.772287,0.21535404,10063827667,-0.0012217305,-0.008552114,0.002443461,10063827667,54.179688
10063829957,-0.7369894,-9.767502,0.2440679,10063829957,-0.0036651916,-0.012217305,0,10063829957,54.179688
10063832238,-0.75613195,-9.777073,0.22492532,10063832238,0.0012217305,-0.008552114,0.002443461,10063832238,54.179688
10063834518,-0.75613195,-9.767502,0.23928227,10063834518,-0.0012217305,-0.012217305,0.0036651916,10063834518,54.179688
10063836798,-0.7609176,-9.772287,0.22971097,10063836798,-0.0012217305,-0.010995574,0.0012217305,10063836798,54.179688
10063839078,-0.7369894,-9.767502,0.22492532,10063839078,-0.0036651916,-0.012217305,0.0036651916,10063839078,54.179688
10063841363,-0.74177504,-9.762716,0.21535404,10063841363,-0.0012217305,-0.012217305,0.004886922,10063841363,54.179688
10063843644,-0.74177504,-9.786645,0.23449662,10063843644,0,-0.013439035,0.002443461,10063843644,54.179688
10063845924,-0.7513463,-9.781859,0.22971097,10063845924,-0.0036651916,-0.012217305,0.0036651916,10063845924,54.1875
10063848204,-0.74177504,-9.781859,0.21535404,10063848204,-0.0036651916,-0.013439035,0.002443461,10063848204,54.1875
10063850485,-0.75613195,-9.743574,0.22971097,10063850485,-0.0036651916,-0.013439035,0.002443461,10063850485,54.1875
10063852765,-0.7513463,-9.772287,0.22492532,10063852765,-0.0012217305,-0.009773844,0.002443461,10063852765,54.1875
10063855045,-0.74177504,-9.767502,0.22013968,10063855045,-0.0036651916,-0.013439035,0.002443461,10063855045,54.1875
10063857326,-0.7513463,-9.777073,0.2105684,10063857326,-0.002443461,-0.012217305,0.002443461,10063857326,54.1875
10063859705,-0.7513463,-9.777073,0.2105684,10063859705,-0.0012217305,-0.010995574,0.002443461,10063859705,54.1875
10063861891,-0.7465607,-9.767502,0.22492532,10063861891,-0.0012217305,-0.010995574,0.002443461,10063861891,54.1875
10063864171,-0.7513463,-9.777073,0.2105684,10063864171,0.0012217305,-0.012217305,0.0036651916,10063864171,54.171875
10063866451,-0.7369894,-9.777073,0.22013968,10063866451,-0.002443461,-0.010995574,0.002443461,10063866451,54.171875
10063868732,-0.74177504,-9.762716,0.21535404,10063868732,-0.002443461,-0.010995574,0.002443461,10063868732,54.171875
10063871016,-0.7752745,-9.781859,0.22013968,10063871016,-0.0012217305,-0.012217305,0.002443461,10063871016,54.171875
10063873297,-0.76570326,-9.781859,0.21535404,10063873297,-0.002443461,-0.012217305,0.004886922,10063873297,54.171875
10063875577,-0.7513463,-9.786645,0.22971097,10063875577,-0.0012217305,-0.012217305,0.002443461,10063875577,54.171875
10063877857,-0.76570326,-9.757931,0.22013968,10063877857,-0.0012217305,-0.012217305,0.0036651916,10063877857,54.171875
10063880134,-0.7704889,-9.781859,0.22492532,10063880134,-0.002443461,-0.013439035,0.002443461,10063880134,54.171875
10063882414,-0.74177504,-9.772287,0.22013968,10063882414,-0.002443461,-0.013439035,0.002443461,10063882414,54.148438
10063884695,-0.7369894,-9.777073,0.22492532,10063884695,-0.002443461,-0.012217305,0.0036651916,10063884695,54.148438
10063886975,-0.74177504,-9.767502,0.21535404,10063886975,0,-0.012217305,0.0012217305,10063886975,54.148438
10063889840,-0.7465607,-9.786645,0.23449662,10063889840,-0.0012217305,-0.012217305,0.0036651916,10063889840,54.148438
10063891551,-0.7465607,-9.772287,0.2440679,10063891551,-0.0036651916,-0.009773844,0.0012217305,10063891551,54.148438
10063893831,-0.7369894,-9.772287,0.22013968,10063893831,-0.002443461,-0.014660766,0.0012217305,10063893831,54.148438
10063896111,-0.7609176,-9.74836,0.21535404,10063896111,-0.0036651916,-0.014660766,0.0012217305,10063896111,54.148438
10063898392,-0.7465607,-9.772287,0.21535404,10063898392,-0.0012217305,-0.010995574,0,10063898392,54.148438
10063900673,-0.7609176,-9.786645,0.22492532,10063900673,-0.002443461,-0.009773844,0.0012217305,10063900673,54.148438
10063902953,-0.7465607,-9.767502,0.22971097,10063902953,0,-0.009773844,0.002443461,10063902953,54.148438
10063905233,-0.7465607,-9.786645,0.22492532,10063905233,0,-0.013439035,0.002443461,10063905233,54.148438
10063907513,-0.74177504,-9.786645,0.22492532,10063907513,-0.004886922,-0.010995574,0.0012217305,10063907513,54.148438
10063909850,-0.75613195,-9.786645,0.22013968,10063909850,-0.004886922,-0.009773844,0.002443461,10063909850,54.148438
10063912083,-0.74177504,-9.772287,0.2105684,10063912083,-0.0036651916,-0.013439035,0.0012217305,10063912083,54.148438
10063914364,-0.7369894,-9.772287,0.22492532,10063914364,-0.0012217305,-0.012217305,0.0012217305,10063914364,54.148438
10063916644,-0.7513463,-9.762716,0.23449662,10063916644,0,-0.013439035,0.0012217305,10063916644,54.148438
10063918924,-0.7465607,-9.781859,0.21535404,10063918924,-0.0012217305,-0.012217305,0.0036651916,10063918924,54.171875
10063921204,-0.7322037,-9.777073,0.22013968,10063921204,-0.0012217305,-0.010995574,0.0036651916,10063921204,54.171875
10063923485,-0.7369894,-9.777073,0.22013968,10063923485,-0.002443461,-0.012217305,0.002443461,10063923485,54.171875
10063925765,-0.76570326,-9.772287,0.22492532,10063925765,-0.0036651916,-0.012217305,0.0012217305,10063925765,54.171875
10063928045,-0.7465607,-9.777073,0.21535404,10063928045,-0.0036651916,-0.012217305,0.002443461,10063928045,54.171875
10063930343,-0.75613195,-9.772287,0.22013968,10063930343,-0.002443461,-0.012217305,0.002443461,10063930343,54.171875
10063932623,-0.7465607,-9.762716,0.22492532,10063932623,0.002443461,-0.010995574,0.0036651916,10063932623,54.171875
10063934903,-0.7369894,-9.757931,0.2105684,10063934903,-0.002443461,-0.009773844,0.002443461,10063934903,54.171875
10063937184,-0.7465607,-9.781859,0.2105684,10063937184,0,-0.010995574,0.002443461,10063937184,54.179688
10063939744,-0.7513463,-9.767502,0.19621146,10063939744,0.0012217305,-0.010995574,0.002443461,10063939744,54.179688
10063941740,-0.74177504,-9.781859,0.19621146,10063941740,0.002443461,-0.013439035,0,10063941740,54.179688
10063944020,-0.75613195,-9.79143,0.21535404,10063944020,-0.0036651916,-0.010995574,0.002443461,10063944020,54.179688
10063946300,-0.7369894,-9.777073,0.2009971,10063946300,-0.0012217305,-0.008552114,0.002443461,10063946300,54.179688
10063948581,-0.75613195,-9.777073,0.2009971,10063948581,-0.0012217305,-0.009773844,0,10063948581,54.179688
10063950878,-0.75613195,-9.781859,0.22013968,10063950878,-0.0036651916,-0.009773844,0.0012217305,10063950878,54.179688
10063953159,-0.7609176,-9.772287,0.22492532,10063953159,-0.002443461,-0.008552114,0.002443461,10063953159,54.179688
10063955439,-0.74177504,-9.772287,0.2009971,10063955439,-0.0012217305,-0.012217305,0.002443461,10063955439,54.171875
10063957719,-0.75613195,-9.777073,0.21535404,10063957719,0.0012217305,-0.012217305,0.0036651916,10063957719,54.171875
10063960004,-0.74177504,-9.772287,0.2105684,10063960004,0,-0.012217305,0.002443461,10063960004,54.171875
10063962284,-0.7513463,-9.762716,0.21535404,10063962284,-0.0012217305,-0.009773844,0.0036651916,10063962284,54.171875
10063964564,-0.7465607,-9.762716,0.2009971,10063964564,-0.0012217305,-0.012217305,0.002443461,10063964564,54.171875
10063966845,-0.72263247,-9.79143,0.22013968,10063966845,0.0012217305,-0.010995574,0.0036651916,10063966845,54.171875
10063969125,-0.74177504,-9.767502,0.20578274,10063969125,-0.0036651916,-0.010995574,0.0036651916,10063969125,54.171875
10063971405,-0.7369894,-9.777073,0.2009971,10063971405,0,-0.009773844,0.002443461,10063971405,54.171875
10063973685,-0.7609176,-9.767502,0.22013968,10063973685,0.0012217305,-0.009773844,0.002443461,10063973685,54.148438
10063975966,-0.7513463,-9.786645,0.22013968,10063975966,-0.0012217305,-0.012217305,0.0012217305,10063975966,54.148438
10063978246,-0.7513463,-9.777073,0.21535404,10063978246,0,-0.010995574,0.002443461,10063978246,54.148438
10063980528,-0.7752745,-9.781859,0.20578274,10063980528,-0.0012217305,-0.009773844,0.002443461,10063980528,54.148438
10063982809,-0.7465607,-9.772287,0.21535404,10063982809,-0.0012217305,-0.008552114,0.002443461,10063982809,54.148438
10063985089,-0.75613195,-9.767502,0.22492532,10063985089,-0.002443461,-0.009773844,0.002443461,10063985089,54.148438
10063987369,-0.76570326,-9.777073,0.20578274,10063987369,-0.0012217305,-0.008552114,0.0036651916,10063987369,54.148438
10063989706,-0.7513463,-9.757931,0.20578274,10063989706,-0.0012217305,-0.009773844,0.0036651916,10063989706,54.148438
10063991939,-0.75613195,-9.772287,0.22971097,10063991939,-0.002443461,-0.008552114,0.0012217305,10063991939,54.242188
10063994220,-0.74177504,-9.767502,0.22013968,10063994220,-0.0036651916,-0.009773844,0.002443461,10063994220,54.242188
10063996500,-0.7369894,-9.767502,0.22971097,10063996500,-0.002443461,-0.010995574,0.002443461,10063996500,54.242188
10063998780,-0.7513463,-9.777073,0.22971097,10063998780,-0.002443461,-0.008552114,0.002443461,10063998780,54.242188
10064001064,-0.7465607,-9.767502,0.2105684,10064001064,-0.002443461,-0.008552114,0.004886922,10064001064,54.242188
10064003344,-0.75613195,-9.786645,0.2105684,10064003344,-0.002443461,-0.008552114,0.0036651916,10064003344,54.242188
10064005624,-0.7513463,-9.767502,0.22013968,10064005624,-0.002443461,-0.010995574,0.002443461,10064005624,54.242188
10064007905,-0.76570326,-9.781859,0.22971097,10064007905,-0.0012217305,-0.012217305,0.002443461,10064007905,54.242188
10064010189,-0.7465607,-9.781859,0.2105684,10064010189,-0.0036651916,-0.010995574,0.004886922,10064010189,54.210938
10064012469,-0.75613195,-9.767502,0.21535404,10064012469,-0.0012217305,-0.010995574,0.0036651916,10064012469,54.210938
10064014749,-0.7513463,-9.796216,0.2105684,10064014749,-0.0012217305,-0.009773844,0.002443461,10064014749,54.210938
10064017029,-0.7322037,-9.777073,0.22013968,10064017029,0,-0.008552114,0.0036651916,10064017029,54.210938
10064019743,-0.7609176,-9.796216,0.22971097,10064019743,-0.0012217305,-0.007330383,0.002443461,10064019743,54.210938
10064021596,-0.7609176,-9.757931,0.21535404,10064021596,-0.002443461,-0.007330383,0.002443461,10064021596,54.210938
10064023877,-0.75613195,-9.762716,0.20578274,10064023877,-0.0036651916,-0.008552114,0,10064023877,54.210938
10064026157,-0.7465607,-9.772287,0.22013968,10064026157,0,-0.010995574,0,10064026157,54.210938
10064028437,-0.7465607,-9.767502,0.21535404,10064028437,0,-0.010995574,0,10064028437,54.164062
10064030726,-0.72263247,-9.781859,0.24885355,10064030726,-0.0012217305,-0.009773844,0.0012217305,10064030726,54.164062
10064033007,-0.74177504,-9.781859,0.23928227,10064033007,-0.0012217305,-0.009773844,0.002443461,10064033007,54.164062
10064035287,-0.75613195,-9.772287,0.2440679,10064035287,-0.002443461,-0.010995574,0.002443461,10064035287,54.164062
10064037567,-0.74177504,-9.772287,0.22013968,10064037567,-0.0036651916,-0.010995574,0.002443461,10064037567,54.164062
10064039851,-0.74177504,-9.767502,0.22971097,10064039851,-0.004886922,-0.009773844,0.004886922,10064039851,54.164062
10064042131,-0.7465607,-9.786645,0.21535404,10064042131,-0.0036651916,-0.012217305,0.002443461,10064042131,54.164062
10064044412,-0.7465607,-9.777073,0.23928227,10064044412,-0.0036651916,-0.010995574,0.002443461,10064044412,54.164062
10064046692,-0.7465607,-9.767502,0.22971097,10064046692,-0.002443461,-0.009773844,0.002443461,10064046692,54.15625
10064048972,-0.75613195,-9.781859,0.22492532,10064048972,-0.0036651916,-0.008552114,0,10064048972,54.15625
10064051247,-0.7609176,-9.772287,0.24885355,10064051247,-0.0036651916,-0.009773844,0,10064051247,54.15625
10064053527,-0.7513463,-9.777073,0.22013968,10064053527,-0.0036651916,-0.009773844,0,10064053527,54.15625
10064055807,-0.7513463,-9.777073,0.22971097,10064055807,-0.0012217305,-0.010995574,0.0012217305,10064055807,54.15625
10064058088,-0.71306115,-9.777073,0.22013968,10064058088,-0.0012217305,-0.009773844,0.002443461,10064058088,54.15625
10064060375,-0.75613195,-9.772287,0.21535404,10064060375,-0.0012217305,-0.009773844,0.002443461,10064060375,54.15625
10064062655,-0.75613195,-9.772287,0.22971097,10064062655,-0.002443461,-0.008552114,0.002443461,10064062655,54.15625
10064064935,-0.75613195,-9.777073,0.22971097,10064064935,0,-0.009773844,0.0036651916,10064064935,54.179688
10064067215,-0.7369894,-9.772287,0.23928227,10064067215,0.0012217305,-0.012217305,0.0036651916,10064067215,54.179688
10064069839,-0.75613195,-9.762716,0.23928227,10064069839,-0.0012217305,-0.012217305,0,10064069839,54.179688
10064071787,-0.74177504,-9.781859,0.23449662,10064071787,-0.0012217305,-0.012217305,0.0012217305,10064071787,54.179688
10064074068,-0.75613195,-9.781859,0.2440679,10064074068,-0.002443461,-0.009773844,0.0012217305,10064074068,54.179688
10064076348,-0.7465607,-9.772287,0.23928227,10064076348,-0.0012217305,-0.010995574,0.0036651916,10064076348,54.179688
10064078628,-0.7369894,-9.781859,0.23449662,10064078628,-0.0036651916,-0.012217305,0,10064078628,54.179688
10064080906,-0.7513463,-9.772287,0.23928227,10064080906,-0.002443461,-0.010995574,0,10064080906,54.179688
10064083186,-0.7322037,-9.781859,0.23928227,10064083186,-0.0012217305,-0.009773844,0.002443461,10064083186,54.19922
10064085467,-0.7369894,-9.786645,0.22492532,10064085467,-0.0012217305,-0.012217305,0,10064085467,54.19922
10064087747,-0.72741807,-9.777073,0.22492532,10064087747,0,-0.013439035,0,10064087747,54.19922
10064090217,-0.7369894,-9.762716,0.2105684,10064090217,-0.002443461,-0.012217305,0.002443461,10064090217,54.19922
10064092332,-0.7513463,-9.772287,0.23928227,10064092332,-0.002443461,-0.010995574,0.0012217305,10064092332,54.19922
10064094612,-0.7609176,-9.757931,0.22971097,10064094612,-0.002443461,-0.012217305,0.002443461,10064094612,54.19922
10064096892,-0.7465607,-9.786645,0.23928227,10064096892,0,-0.010995574,0.002443461,10064096892,54.19922
10064099172,-0.75613195,-9.781859,0.23449662,10064099172,-0.002443461,-0.013439035,0.0012217305,10064099172,54.19922
10064101452,-0.7465607,-9.767502,0.2440679,10064101452,0.0012217305,-0.013439035,0.002443461,10064101452,54.164062
10064103733,-0.7609176,-9.753145,0.2440679,10064103733,-0.002443461,-0.010995574,0.0036651916,10064103733,54.164062
10064106013,-0.75613195,-9.767502,0.2440679,10064106013,0.0012217305,-0.008552114,0.002443461,10064106013,54.164062
10064108293,-0.7513463,-9.777073,0.2440679,10064108293,-0.002443461,-0.012217305,0.0012217305,10064108293,54.164062
10064110581,-0.75613195,-9.753145,0.23928227,10064110581,0.0012217305,-0.010995574,0.0012217305,10064110581,54.164062
10064112861,-0.7465607,-9.757931,0.23928227,10064112861,-0.0012217305,-0.010995574,0,10064112861,54.164062
10064115141,-0.7609176,-9.777073,0.23928227,10064115141,0,-0.009773844,0,10064115141,54.164062
10064117422,-0.7369894,-9.767502,0.23928227,10064117422,-0.0036651916,-0.012217305,0.002443461,10064117422,54.164062
10064119710,-0.7513463,-9.781859,0.23928227,10064119710,0,-0.013439035,0.002443461,10064119710,54.25
10064121990,-0.7513463,-9.786645,0.22013968,10064121990,-0.0012217305,-0.013439035,0.002443461,10064121990,54.25
10064124270,-0.75613195,-9.772287,0.22971097,10064124270,0,-0.009773844,0.004886922,10064124270,54.25
10064126550,-0.7609176,-9.781859,0.22492532,10064126550,-0.002443461,-0.010995574,0,10064126550,54.25
10064128831,-0.7465607,-9.772287,0.22013968,10064128831,-0.0012217305,-0.013439035,0.0012217305,10064128831,54.25
10064131106,-0.7513463,-9.772287,0.2105684,10064131106,-0.002443461,-0.013439035,0.0012217305,10064131106,54.25
10064133386,-0.75613195,-9.786645,0.22971097,10064133386,-0.002443461,-0.010995574,0.0012217305,10064133386,54.25
10064135666,-0.7609176,-9.781859,0.21535404,10064135666,-0.004886922,-0.012217305,0.002443461,10064135666,54.25
10064137946,-0.74177504,-9.767502,0.22971097,10064137946,-0.0036651916,-0.012217305,0.0012217305,10064137946,54.152344
10064140241,-0.7465607,-9.772287,0.22492532,10064140241,-0.0012217305,-0.010995574,0.0012217305,10064140241,54.152344
10064142522,-0.76570326,-9.781859,0.24885355,10064142522,0,-0.012217305,0.002443461,10064142522,54.152344
10064144802,-0.7465607,-9.786645,0.22971097,10064144802,-0.0012217305,-0.013439035,0.002443461,10064144802,54.152344
10064147082,-0.7465607,-9.79143,0.22013968,10064147082,-0.004886922,-0.010995574,0.002443461,10064147082,54.152344
10064149701,-0.7465607,-9.762716,0.22492532,10064149701,-0.002443461,-0.012217305,0,10064149701,54.152344
10064151649,-0.72741807,-9.767502,0.23449662,10064151649,0,-0.012217305,0.0012217305,10064151649,54.152344
10064153930,-0.7513463,-9.777073,0.22971097,10064153930,0.0012217305,-0.010995574,0.002443461,10064153930,54.152344
10064156210,-0.7322037,-9.772287,0.22013968,10064156210,-0.0036651916,-0.012217305,0.0012217305,10064156210,54.1875
10064158490,-0.74177504,-9.796216,0.23449662,10064158490,-0.002443461,-0.009773844,0.0036651916,10064158490,54.1875
10064160774,-0.7513463,-9.777073,0.22492532,10064160774,-0.002443461,-0.010995574,0.0036651916,10064160774,54.1875
10064163054,-0.7513463,-9.786645,0.22971097,10064163054,0,-0.012217305,0.0036651916,10064163054,54.1875
10064165334,-0.7369894,-9.781859,0.22013968,10064165334,-0.002443461,-0.012217305,0.004886922,10064165334,54.1875
10064167615,-0.7609176,-9.772287,0.2536392,10064167615,-0.004886922,-0.013439035,0.0036651916,10064167615,54.1875
10064169894,-0.7609176,-9.753145,0.22013968,10064169894,-0.0012217305,-0.013439035,0.0012217305,10064169894,54.1875
10064172174,-0.75613195,-9.762716,0.22971097,10064172174,-0.0036651916,-0.010995574,0.0012217305,10064172174,54.1875
10064174454,-0.7465607,-9.767502,0.22971097,10064174454,-0.0036651916,-0.012217305,0.002443461,10064174454,54.179688
10064176734,-0.7513463,-9.767502,0.22971097,10064176734,-0.0036651916,-0.012217305,0,10064176734,54.179688
10064179015,-0.75613195,-9.772287,0.20578274,10064179015,0,-0.008552114,0.0012217305,10064179015,54.179688
10064181300,-0.75613195,-9.772287,0.22492532,10064181300,-0.0012217305,-0.009773844,0.002443461,10064181300,54.179688
10064183581,-0.7513463,-9.772287,0.22971097,10064183581,0.0012217305,-0.012217305,0.002443461,10064183581,54.179688
10064185861,-0.7369894,-9.767502,0.22971097,10064185861,-0.0012217305,-0.010995574,0,10064185861,54.179688
10064188141,-0.7609176,-9.772287,0.23449662,10064188141,-0.0036651916,-0.010995574,0.0012217305,10064188141,54.179688
10064190439,-0.7322037,-9.772287,0.22971097,10064190439,-0.002443461,-0.009773844,0.0012217305,10064190439,54.179688
10064192719,-0.7465607,-9.777073,0.22013968,10064192719,-0.0012217305,-0.010995574,0.002443461,10064192719,54.15625
10064194999,-0.7609176,-9.762716,0.22492532,10064194999,-0.002443461,-0.012217305,0.002443461,10064194999,54.15625
10064197280,-0.7465607,-9.772287,0.22971097,10064197280,0,-0.013439035,0.002443461,10064197280,54.15625
10064199743,-0.76570326,-9.786645,0.2105684,10064199743,0.0012217305,-0.012217305,0.0012217305,10064199743,54.15625
10064201834,-0.7465607,-9.781859,0.21535404,10064201834,0.0012217305,-0.013439035,0.002443461,10064201834,54.15625
10064204114,-0.75613195,-9.772287,0.23928227,10064204114,0,-0.010995574,0.0036651916,10064204114,54.15625
10064206394,-0.75613195,-9.762716,0.24885355,10064206394,-0.002443461,-0.010995574,0.0036651916,10064206394,54.15625
10064208675,-0.7513463,-9.757931,0.23449662,10064208675,-0.0012217305,-0.012217305,0.0036651916,10064208675,54.15625
10064210969,-0.7704889,-9.767502,0.24885355,10064210969,-0.0036651916,-0.012217305,0.002443461,10064210969,54.140625
10064213249,-0.7704889,-9.781859,0.22013968,10064213249,0,-0.010995574,0.002443461,10064213249,54.140625
10064215529,-0.74177504,-9.757931,0.22013968,10064215529,-0.002443461,-0.013439035,0.002443461,10064215529,54.140625
10064217809,-0.72741807,-9.781859,0.21535404,10064217809,-0.0036651916,-0.013439035,0,10064217809,54.140625
10064220101,-0.7369894,-9.753145,0.22013968,10064220101,-0.002443461,-0.013439035,0.002443461,10064220101,54.140625
10064222381,-0.7609176,-9.777073,0.23928227,10064222381,-0.002443461,-0.013439035,0.0012217305,10064222381,54.140625
10064224661,-0.76570326,-9.757931,0.22971097,10064224661,0.0012217305,-0.010995574,0.002443461,10064224661,54.140625
10064226942,-0.7513463,-9.762716,0.22971097,10064226942,0.0012217305,-0.009773844,0.002443461,10064226942,54.140625
10064229222,-0.7465607,-9.762716,0.23928227,10064229222,-0.0036651916,-0.010995574,0,10064229222,54.179688
10064231492,-0.76570326,-9.772287,0.2440679,10064231492,-0.0012217305,-0.010995574,0.002443461,10064231492,54.179688
10064233773,-0.7513463,-9.781859,0.21535404,10064233773,-0.002443461,-0.010995574,0.002443461,10064233773,54.179688
10064236053,-0.74177504,-9.786645,0.23449662,10064236053,-0.004886922,-0.010995574,0.002443461,10064236053,54.179688
10064238333,-0.7369894,-9.777073,0.2440679,10064238333,-0.0012217305,-0.008552114,0.002443461,10064238333,54.179688
10064240610,-0.74177504,-9.781859,0.22492532,10064240610,-0.0012217305,-0.010995574,0.002443461,10064240610,54.179688
10064242890,-0.75613195,-9.777073,0.22492532,10064242890,-0.002443461,-0.012217305,0.002443461,10064242890,54.179688
10064245171,-0.75613195,-9.786645,0.22013968,10064245171,-0.0012217305,-0.012217305,0.002443461,10064245171,54.179688
10064247451,-0.7513463,-9.753145,0.22971097,10064247451,-0.0012217305,-0.010995574,0.002443461,10064247451,54.222656
10064249840,-0.7465607,-9.757931,0.2440679,10064249840,-0.004886922,-0.010995574,0.002443461,10064249840,54.222656
10064252026,-0.75613195,-9.757931,0.22492532,10064252026,-0.0036651916,-0.014660766,0,10064252026,54.222656
10064254306,-0.75613195,-9.772287,0.2440679,10064254306,-0.0012217305,-0.012217305,0.004886922,10064254306,54.222656
10064256586,-0.7513463,-9.777073,0.23449662,10064256586,-0.002443461,-0.012217305,0.002443461,10064256586,54.222656
10064258867,-0.7465607,-9.786645,0.22492532,10064258867,-0.0036651916,-0.012217305,0.002443461,10064258867,54.222656
10064261166,-0.7513463,-9.772287,0.22971097,10064261166,-0.0012217305,-0.010995574,0.002443461,10064261166,54.222656
10064263447,-0.7609176,-9.767502,0.22492532,10064263447,-0.0036651916,-0.012217305,0.004886922,10064263447,54.222656
10064265727,-0.7465607,-9.777073,0.23928227,10064265727,-0.0012217305,-0.010995574,0.002443461,10064265727,54.19922
10064268007,-0.7369894,-9.772287,0.23449662,10064268007,0.0012217305,-0.012217305,0.0012217305,10064268007,54.19922
10064270291,-0.7513463,-9.772287,0.22971097,10064270291,-0.0012217305,-0.009773844,0.0012217305,10064270291,54.19922
10064272571,-0.7513463,-9.772287,0.22971097,10064272571,0,-0.010995574,0.0012217305,10064272571,54.19922
10064274851,-0.7513463,-9.772287,0.22013968,10064274851,-0.002443461,-0.013439035,0.0036651916,10064274851,54.19922
10064277132,-0.7513463,-9.767502,0.22971097,10064277132,0,-0.009773844,0.004886922,10064277132,54.19922
10064279707,-0.74177504,-9.772287,0.23449662,10064279707,-0.002443461,-0.013439035,0.004886922,10064279707,54.19922
10064281679,-0.7465607,-9.772287,0.22971097,10064281679,-0.002443461,-0.012217305,0.002443461,10064281679,54.19922
10064283959,-0.75613195,-9.777073,0.22492532,10064283959,-0.0036651916,-0.013439035,0.002443461,10064283959,54.1875
10064286240,-0.74177504,-9.753145,0.22971097,10064286240,-0.002443461,-0.010995574,0,10064286240,54.1875
10064288520,-0.7369894,-9.777073,0.22971097,10064288520,-0.0036651916,-0.012217305,0.0012217305,10064288520,54.1875
10064290821,-0.74177504,-9.767502,0.23449662,10064290821,0,-0.013439035,0.002443461,10064290821,54.1875
10064293102,-0.7752745,-9.781859,0.23928227,10064293102,-0.0012217305,-0.013439035,0.0012217305,10064293102,54.1875
10064295382,-0.7465607,-9.781859,0.22971097,10064295382,-0.0036651916,-0.012217305,0.0012217305,10064295382,54.1875
10064297662,-0.7369894,-9.767502,0.23928227,10064297662,-0.0012217305,-0.014660766,0.0012217305,10064297662,54.1875
10064299945,-0.7465607,-9.777073,0.22492532,10064299945,-0.0012217305,-0.013439035,0.002443461,10064299945,54.1875
10064302225,-0.7513463,-9.777073,0.23449662,10064302225,-0.0012217305,-0.014660766,0.002443461,10064302225,54.164062
10064304506,-0.74177504,-9.781859,0.22492532,10064304506,-0.0012217305,-0.012217305,0.002443461,10064304506,54.164062
10064306786,-0.7369894,-9.781859,0.22971097,10064306786,-0.002443461,-0.012217305,0.002443461,10064306786,54.164062
10064309066,-0.75613195,-9.753145,0.22492532,10064309066,-0.002443461,-0.014660766,0.0012217305,10064309066,54.164062
10064311359,-0.75613195,-9.762716,0.22492532,10064311359,0.002443461,-0.014660766,0,10064311359,54.164062
10064313639,-0.75613195,-9.781859,0.23449662,10064313639,0.0012217305,-0.013439035,0,10064313639,54.164062
10064315919,-0.75613195,-9.767502,0.22971097,10064315919,-0.0012217305,-0.013439035,0.002443461,10064315919,54.164062
10064318200,-0.7752745,-9.762716,0.22492532,10064318200,-0.0061086523,-0.013439035,0.0012217305,10064318200,54.164062
10064320466,-0.72741807,-9.777073,0.22013968,10064320466,-0.002443461,-0.014660766,0.0036651916,10064320466,54.179688
10064322746,-0.74177504,-9.757931,0.22492532,10064322746,-0.0012217305,-0.012217305,0.002443461,10064322746,54.179688
10064325026,-0.7513463,-9.767502,0.22013968,10064325026,-0.002443461,-0.010995574,0.002443461,10064325026,54.179688
10064327306,-0.7513463,-9.777073,0.2105684,10064327306,-0.0012217305,-0.012217305,0.002443461,10064327306,54.179688
10064329858,-0.75613195,-9.79143,0.21535404,10064329858,-0.002443461,-0.013439035,0.002443461,10064329858,54.179688
10064331878,-0.7465607,-9.777073,0.22492532,10064331878,0.0012217305,-0.014660766,0.002443461,10064331878,54.179688
10064334158,-0.7369894,-9.777073,0.21535404,10064334158,-0.0012217305,-0.014660766,0.002443461,10064334158,54.179688
10064336438,-0.7369894,-9.786645,0.21535404,10064336438,-0.002443461,-0.013439035,0.0012217305,10064336438,54.179688
10064338718,-0.7609176,-9.777073,0.19621146,10064338718,-0.0012217305,-0.013439035,0.0012217305,10064338718,54.15625
10064341017,-0.75613195,-9.772287,0.22971097,10064341017,-0.002443461,-0.010995574,0.0036651916,10064341017,54.15625
10064343298,-0.7369894,-9.772287,0.22013968,10064343298,-0.0036651916,-0.010995574,0.002443461,10064343298,54.15625
10064345578,-0.7369894,-9.757931,0.22013968,10064345578,-0.002443461,-0.010995574,0.0012217305,10064345578,54.15625
10064347858,-0.7513463,-9.767502,0.22492532,10064347858,-0.0036651916,-0.012217305,0.0036651916,10064347858,54.15625
10064350134,-0.7513463,-9.772287,0.2009971,10064350134,-0.0036651916,-0.012217305,0.002443461,10064350134,54.15625
10064352414,-0.75613195,-9.772287,0.21535404,10064352414,-0.0036651916,-0.010995574,0.0012217305,10064352414,54.15625
10064354695,-0.7465607,-9.772287,0.22013968,10064354695,-0.002443461,-0.013439035,0.0012217305,10064354695,54.15625
10064356975,-0.7609176,-9.781859,0.2105684,10064356975,-0.002443461,-0.012217305,0.002443461,10064356975,54.164062
10064359741,-0.7513463,-9.786645,0.22492532,10064359741,0,-0.009773844,0.0012217305,10064359741,54.164062
10064361547,-0.75613195,-9.772287,0.22971097,10064361547,-0.0012217305,-0.010995574,0.002443461,10064361547,54.164062
10064363827,-0.7513463,-9.772287,0.22013968,10064363827,-0.002443461,-0.010995574,0.002443461,10064363827,54.164062
10064366107,-0.7322037,-9.79143,0.2105684,10064366107,0,-0.012217305,0,10064366107,54.164062
10064368388,-0.7465607,-9.777073,0.22013968,10064368388,0,-0.012217305,0.0012217305,10064368388,54.164062
10064370673,-0.75613195,-9.777073,0.22013968,10064370673,-0.002443461,-0.008552114,0.002443461,10064370673,54.164062
10064372953,-0.74177504,-9.767502,0.2105684,10064372953,-0.0036651916,-0.009773844,0.002443461,10064372953,54.164062
10064375233,-0.7369894,-9.777073,0.2105684,10064375233,-0.002443461,-0.012217305,0,10064375233,54.148438
10064377513,-0.72741807,-9.772287,0.22013968,10064377513,-0.0012217305,-0.010995574,0.002443461,10064377513,54.148438
10064379787,-0.74177504,-9.777073,0.19621146,10064379787,-0.0036651916,-0.010995574,0.0012217305,10064379787,54.148438
10064382067,-0.7465607,-9.772287,0.21535404,10064382067,-0.0012217305,-0.010995574,0.002443461,10064382067,54.148438
10064384348,-0.74177504,-9.777073,0.22013968,10064384348,0,-0.010995574,0.002443461,10064384348,54.148438
10064386628,-0.7322037,-9.772287,0.23928227,10064386628,0,-0.010995574,0.002443461,10064386628,54.148438
10064388908,-0.74177504,-9.772287,0.22013968,10064388908,-0.0012217305,-0.012217305,0.0036651916,10064388908,54.148438
10064391194,-0.75613195,-9.74836,0.22013968,10064391194,-0.002443461,-0.009773844,0.002443461,10064391194,54.148438
10064393474,-0.7465607,-9.777073,0.2105684,10064393474,-0.002443461,-0.007330383,0.0012217305,10064393474,54.179688
10064395755,-0.7513463,-9.786645,0.18664017,10064395755,0,-0.012217305,0.002443461,10064395755,54.179688
10064398035,-0.75613195,-9.777073,0.21535404,10064398035,-0.002443461,-0.010995574,0.0036651916,10064398035,54.179688
10064400336,-0.7609176,-9.753145,0.20578274,10064400336,-0.002443461,-0.010995574,0,10064400336,54.179688
10064402617,-0.7609176,-9.767502,0.2105684,10064402617,0,-0.009773844,0.002443461,10064402617,54.179688
10064404897,-0.7609176,-9.777073,0.21535404,10064404897,0,-0.009773844,0.002443461,10064404897,54.179688
10064407177,-0.7513463,-9.772287,0.19621146,10064407177,-0.004886922,-0.010995574,0.0012217305,10064407177,54.179688
10064409712,-0.75613195,-9.781859,0.22492532,10064409712,-0.0036651916,-0.012217305,0.0036651916,10064409712,54.179688
10064411732,-0.7369894,-9.772287,0.2105684,10064411732,0,-0.013439035,0.002443461,10064411732,54.1875
10064414012,-0.7513463,-9.79143,0.22013968,10064414012,-0.0036651916,-0.010995574,0.0036651916,10064414012,54.1875
10064416292,-0.7465607,-9.777073,0.2009971,10064416292,-0.0036651916,-0.009773844,0.004886922,10064416292,54.1875
10064418572,-0.7369894,-9.762716,0.22013968,10064418572,-0.002443461,-0.010995574,0.0036651916,10064418572,54.1875
10064420873,-0.7513463,-9.781859,0.2105684,10064420873,0,-0.010995574,0.002443461,10064420873,54.1875
10064423153,-0.76570326,-9.781859,0.2009971,10064423153,0.002443461,-0.012217305,0.0012217305,10064423153,54.1875
10064425433,-0.7609176,-9.772287,0.2009971,10064425433,-0.0012217305,-0.010995574,0.0012217305,10064425433,54.1875
10064427714,-0.7609176,-9.786645,0.21535404,10064427714,-0.002443461,-0.010995574,0.0012217305,10064427714,54.1875
10064429993,-0.7369894,-9.772287,0.21535404,10064429993,0,-0.009773844,0.002443461,10064429993,54.148438
10064432273,-0.74177504,-9.743574,0.20578274,10064432273,0,-0.009773844,-0.0012217305,10064432273,54.148438
10064434553,-0.75613195,-9.767502,0.22492532,10064434553,0,-0.008552114,0.002443461,10064434553,54.148438
10064436833,-0.7609176,-9.757931,0.22013968,10064436833,-0.002443461,-0.009773844,0.002443461,10064436833,54.148438
10064439114,-0.74177504,-9.762716,0.2105684,10064439114,-0.0036651916,-0.008552114,0.0012217305,10064439114,54.148438
10064441397,-0.7609176,-9.757931,0.22492532,10064441397,-0.002443461,-0.009773844,0.002443461,10064441397,54.148438
10064443678,-0.7513463,-9.781859,0.23449662,10064443678,0.0012217305,-0.013439035,0.0036651916,10064443678,54.148438
10064445958,-0.74177504,-9.777073,0.22492532,10064445958,-0.004886922,-0.010995574,0.004886922,10064445958,54.148438
10064448238,-0.7513463,-9.777073,0.2009971,10064448238,-0.0012217305,-0.010995574,0.0012217305,10064448238,54.164062
10064450528,-0.7513463,-9.781859,0.23449662,10064450528,-0.002443461,-0.009773844,0.0012217305,10064450528,54.164062
10064452809,-0.7465607,-9.767502,0.22492532,10064452809,-0.0012217305,-0.009773844,0.002443461,10064452809,54.164062
10064455089,-0.7513463,-9.781859,0.2105684,10064455089,-0.0012217305,-0.010995574,0.002443461,10064455089,54.164062
10064457369,-0.7513463,-9.762716,0.22492532,10064457369,-0.0012217305,-0.010995574,0.0012217305,10064457369,54.164062
10064459705,-0.75613195,-9.762716,0.2105684,10064459705,0,-0.008552114,0.0036651916,10064459705,54.164062
10064461938,-0.7513463,-9.757931,0.19621146,10064461938,-0.0061086523,-0.009773844,0.0012217305,10064461938,54.164062
10064464219,-0.7513463,-9.781859,0.23928227,10064464219,-0.004886922,-0.008552114,0.0036651916,10064464219,54.164062
10064466499,-0.75613195,-9.767502,0.22971097,10064466499,0,-0.010995574,0.002443461,10064466499,54.15625
10064468779,-0.7609176,-9.777073,0.22971097,10064468779,-0.002443461,-0.012217305,0,10064468779,54.15625
10064471059,-0.7322037,-9.757931,0.22492532,10064471059,-0.002443461,-0.010995574,0.0012217305,10064471059,54.15625
10064473339,-0.7513463,-9.762716,0.22971097,10064473339,0,-0.010995574,0.002443461,10064473339,54.15625
10064475619,-0.7609176,-9.781859,0.23928227,10064475619,-0.002443461,-0.008552114,0.002443461,10064475619,54.15625
10064477900,-0.7513463,-9.777073,0.23449662,10064477900,-0.0012217305,-0.008552114,0.0012217305,10064477900,54.15625
10064480181,-0.76570326,-9.772287,0.22492532,10064480181,-0.0012217305,-0.012217305,0.002443461,10064480181,54.15625
10064482461,-0.75613195,-9.777073,0.22971097,10064482461,-0.0036651916,-0.012217305,0.002443461,10064482461,54.15625
10064484741,-0.75613195,-9.777073,0.22971097,10064484741,0,-0.009773844,0.002443461,10064484741,54.1875
10064487021,-0.7322037,-9.767502,0.23449662,10064487021,-0.0012217305,-0.010995574,0.0012217305,10064487021,54.1875
10064489839,-0.7369894,-9.772287,0.22971097,10064489839,-0.002443461,-0.010995574,0.002443461,10064489839,54.1875
10064491597,-0.76570326,-9.772287,0.23449662,10064491597,-0.0012217305,-0.010995574,0.0036651916,10064491597,54.1875
10064493878,-0.76570326,-9.777073,0.23449662,10064493878,-0.0036651916,-0.012217305,0.002443461,10064493878,54.1875
10064496158,-0.76570326,-9.786645,0.23449662,10064496158,-0.0012217305,-0.010995574,0.0012217305,10064496158,54.1875
10064498438,-0.76570326,-9.786645,0.21535404,10064498438,-0.0036651916,-0.010995574,0.002443461,10064498438,54.1875
10064500719,-0.75613195,-9.772287,0.23449662,10064500719,-0.002443461,-0.010995574,0.0012217305,10064500719,54.1875
10064502999,-0.75613195,-9.777073,0.24885355,10064502999,0,-0.010995574,0.002443461,10064502999,54.214844
10064505280,-0.76570326,-9.777073,0.22492532,10064505280,0,-0.010995574,0.002443461,10064505280,54.214844
10064507560,-0.7465607,-9.777073,0.2440679,10064507560,-0.0036651916,-0.012217305,0.002443461,10064507560,54.214844
10064509850,-0.7465607,-9.786645,0.22971097,10064509850,-0.0012217305,-0.010995574,0.0012217305,10064509850,54.214844
10064512130,-0.7609176,-9.767502,0.23449662,10064512130,0.0012217305,-0.012217305,0,10064512130,54.214844
10064514410,-0.7465607,-9.762716,0.22013968,10064514410,-0.0012217305,-0.012217305,0.002443461,10064514410,54.214844
10064516690,-0.74177504,-9.777073,0.22013968,10064516690,-0.004886922,-0.013439035,0.0012217305,10064516690,54.214844
10064518971,-0.7465607,-9.772287,0.22492532,10064518971,-0.004886922,-0.013439035,0.0012217305,10064518971,54.214844
10064521260,-0.75613195,-9.777073,0.2105684,10064521260,-0.0012217305,-0.012217305,0.0012217305,10064521260,54.1875
10064523541,-0.75613195,-9.777073,0.21535404,10064523541,0.0012217305,-0.012217305,0.0012217305,10064523541,54.1875
10064525821,-0.7369894,-9.786645,0.23449662,10064525821,0,-0.010995574,0.0036651916,10064525821,54.1875
10064528101,-0.7369894,-9.767502,0.22971097,10064528101,-0.0036651916,-0.010995574,0.0012217305,10064528101,54.1875
10064530381,-0.7465607,-9.772287,0.23928227,10064530381,0.0012217305,-0.013439035,0.002443461,10064530381,54.1875
10064532661,-0.7465607,-9.767502,0.22971097,10064532661,-0.002443461,-0.013439035,-0.0012217305,10064532661,54.1875
10064534942,-0.7704889,-9.781859,0.22013968,10064534942,-0.0012217305,-0.010995574,0.002443461,10064534942,54.1875
10064537222,-0.7465607,-9.781859,0.22492532,10064537222,0,-0.010995574,0.002443461,10064537222,54.1875
10064539706,-0.76570326,-9.762716,0.22013968,10064539706,0,-0.012217305,0.0036651916,10064539706,54.164062
10064541773,-0.7513463,-9.753145,0.20578274,10064541773,0.0012217305,-0.010995574,0.002443461,10064541773,54.164062
10064544053,-0.7609176,-9.767502,0.23928227,10064544053,-0.0012217305,-0.008552114,0.002443461,10064544053,54.164062
10064546334,-0.7513463,-9.772287,0.22971097,10064546334,0,-0.009773844,0.0012217305,10064546334,54.164062
10064548614,-0.7704889,-9.781859,0.23449662,10064548614,-0.0012217305,-0.012217305,-0.0012217305,10064548614,54.164062
10064550916,-0.7465607,-9.762716,0.22492532,10064550916,-0.002443461,-0.012217305,0.0012217305,10064550916,54.164062
10064553197,-0.74177504,-9.777073,0.23449662,10064553197,-0.0012217305,-0.010995574,0.002443461,10064553197,54.164062
10064555477,-0.75613195,-9.772287,0.22013968,10064555477,-0.0012217305,-0.009773844,0.004886922,10064555477,54.164062
10064557757,-0.7465607,-9.772287,0.22013968,10064557757,-0.004886922,-0.009773844,0.0012217305,10064557757,54.15625
10064560029,-0.74177504,-9.777073,0.2440679,10064560029,-0.002443461,-0.012217305,0.002443461,10064560029,54.15625
10064562309,-0.75613195,-9.767502,0.21535404,10064562309,0.0012217305,-0.013439035,0.002443461,10064562309,54.15625
10064564589,-0.7513463,-9.777073,0.22492532,10064564589,-0.0012217305,-0.010995574,0.0012217305,10064564589,54.15625
10064566869,-0.7465607,-9.762716,0.22971097,10064566869,0,-0.010995574,0.002443461,10064566869,54.15625
10064569150,-0.7513463,-9.777073,0.23449662,10064569150,-0.0012217305,-0.013439035,0.002443461,10064569150,54.15625
10064571449,-0.72263247,-9.781859,0.22971097,10064571449,-0.0012217305,-0.013439035,0.002443461,10064571449,54.15625
10064573730,-0.7609176,-9.786645,0.22971097,10064573730,0,-0.012217305,0.002443461,10064573730,54.15625
10064576010,-0.7704889,-9.767502,0.22013968,10064576010,-0.0036651916,-0.009773844,0,10064576010,54.179688
10064578290,-0.74177504,-9.777073,0.22492532,10064578290,-0.0061086523,-0.009773844,0.0012217305,10064578290,54.179688
10064580572,-0.7369894,-9.781859,0.23449662,10064580572,0.0012217305,-0.010995574,0.0012217305,10064580572,54.179688
10064582852,-0.7369894,-9.762716,0.2105684,10064582852,0,-0.012217305,0.0012217305,10064582852,54.179688
10064585132,-0.7513463,-9.767502,0.2105684,10064585132,-0.002443461,-0.012217305,0.002443461,10064585132,54.179688
10064587413,-0.7465607,-9.772287,0.22492532,10064587413,-0.002443461,-0.012217305,0.002443461,10064587413,54.179688
10064589705,-0.76570326,-9.772287,0.2440679,10064589705,-0.0036651916,-0.012217305,0.0012217305,10064589705,54.179688
10064591985,-0.7513463,-9.777073,0.23449662,10064591985,-0.0012217305,-0.009773844,0.0036651916,10064591985,54.179688
10064594265,-0.75613195,-9.777073,0.23928227,10064594265,0.0012217305,-0.008552114,0.002443461,10064594265,54.171875
10064596545,-0.7609176,-9.777073,0.22013968,10064596545,-0.0012217305,-0.010995574,0.002443461,10064596545,54.171875
10064598826,-0.76570326,-9.786645,0.2440679,10064598826,0.0012217305,-0.010995574,0.0012217305,10064598826,54.171875
10064601104,-0.7465607,-9.786645,0.22013968,10064601104,0,-0.010995574,0.0036651916,10064601104,54.171875
10064603385,-0.74177504,-9.781859,0.22492532,10064603385,0.0012217305,-0.010995574,0,10064603385,54.171875
10064605665,-0.7465607,-9.777073,0.23449662,10064605665,-0.0012217305,-0.009773844,0,10064605665,54.171875
10064607945,-0.7513463,-9.781859,0.23449662,10064607945,-0.002443461,-0.008552114,0.0012217305,10064607945,54.171875
10064610235,-0.76570326,-9.786645,0.22971097,10064610235,0,-0.010995574,0.0012217305,10064610235,54.171875
10064612515,-0.7465607,-9.762716,0.23928227,10064612515,-0.0036651916,-0.012217305,0.002443461,10064612515,54.20703
10064614796,-0.76570326,-9.762716,0.22971097,10064614796,0,-0.010995574,0.002443461,10064614796,54.20703
10064617076,-0.7513463,-9.767502,0.21535404,10064617076,-0.0012217305,-0.010995574,0.0012217305,10064617076,54.20703
10064619746,-0.7609176,-9.762716,0.21535404,10064619746,-0.002443461,-0.010995574,0.002443461,10064619746,54.20703
10064621623,-0.7513463,-9.79143,0.21535404,10064621623,-0.0036651916,-0.010995574,0.0012217305,10064621623,54.20703
10064623903,-0.7609176,-9.762716,0.22971097,10064623903,-0.0036651916,-0.007330383,0.002443461,10064623903,54.20703
10064626184,-0.7465607,-9.781859,0.21535404,10064626184,-0.0036651916,-0.009773844,0.0036651916,10064626184,54.20703
10064628464,-0.76570326,-9.772287,0.23928227,10064628464,-0.0036651916,-0.012217305,0.002443461,10064628464,54.20703
10064630762,-0.7369894,-9.772287,0.23449662,10064630762,-0.0036651916,-0.009773844,0.0036651916,10064630762,54.179688
10064633042,-0.7369894,-9.757931,0.22971097,10064633042,0,-0.009773844,0.0012217305,10064633042,54.179688
10064635322,-0.7513463,-9.777073,0.21535404,10064635322,0,-0.010995574,0.0012217305,10064635322,54.179688
10064637602,-0.7609176,-9.772287,0.22013968,10064637602,-0.0012217305,-0.008552114,0.0036651916,10064637602,54.179688
10064639886,-0.75613195,-9.757931,0.22492532,10064639886,0,-0.009773844,0.0036651916,10064639886,54.179688
10064642166,-0.7465607,-9.772287,0.22971097,10064642166,-0.0036651916,-0.010995574,0.002443461,10064642166,54.179688
10064644447,-0.7465607,-9.767502,0.22492532,10064644447,0.0012217305,-0.010995574,0,10064644447,54.179688
10064646727,-0.7513463,-9.753145,0.21535404,10064646727,-0.0012217305,-0.009773844,0,10064646727,54.179688
10064649007,-0.7465607,-9.757931,0.22492532,10064649007,-0.002443461,-0.009773844,0.002443461,10064649007,54.15625
10064651296,-0.7513463,-9.772287,0.2440679,10064651296,-0.002443461,-0.008552114,0.0036651916,10064651296,54.15625
10064653577,-0.72263247,-9.772287,0.23449662,10064653577,-0.002443461,-0.010995574,0.0012217305,10064653577,54.15625
10064655857,-0.7513463,-9.762716,0.2105684,10064655857,-0.0012217305,-0.010995574,0.0036651916,10064655857,54.15625
10064658137,-0.75613195,-9.772287,0.22013968,10064658137,0.0012217305,-0.009773844,0.0036651916,10064658137,54.15625
10064660416,-0.7322037,-9.777073,0.24885355,10064660416,0,-0.010995574,0.0012217305,10064660416,54.15625
10064662696,-0.7513463,-9.762716,0.22971097,10064662696,-0.0036651916,-0.010995574,0.0012217305,10064662696,54.15625
10064664977,-0.7609176,-9.762716,0.2536392,10064664977,-0.004886922,-0.010995574,0.0012217305,10064664977,54.15625
10064667257,-0.7513463,-9.772287,0.24885355,10064667257,-0.0012217305,-0.010995574,0.0012217305,10064667257,54.1875
10064669840,-0.74177504,-9.772287,0.25842485,10064669840,-0.0012217305,-0.010995574,0.0012217305,10064669840,54.1875
10064671836,-0.74177504,-9.786645,0.24885355,10064671836,-0.002443461,-0.012217305,-0.0012217305,10064671836,54.1875
10064674116,-0.75613195,-9.777073,0.23928227,10064674116,-0.0012217305,-0.010995574,0.0012217305,10064674116,54.1875
10064676396,-0.75613195,-9.762716,0.24885355,10064676396,-0.0036651916,-0.012217305,0.002443461,10064676396,54.1875
10064678677,-0.75613195,-9.762716,0.23449662,10064678677,0,-0.010995574,0.0012217305,10064678677,54.1875
10064680955,-0.74177504,-9.781859,0.23449662,10064680955,0.0012217305,-0.013439035,0.0012217305,10064680955,54.1875
10064683235,-0.74177504,-9.777073,0.2440679,10064683235,-0.0036651916,-0.013439035,0.002443461,10064683235,54.1875
10064685515,-0.74177504,-9.781859,0.22971097,10064685515,-0.002443461,-0.012217305,0.0036651916,10064685515,54.179688
10064687795,-0.7513463,-9.777073,0.23449662,10064687795,-0.002443461,-0.010995574,0.0036651916,10064687795,54.179688
10064690076,-0.7465607,-9.772287,0.23928227,10064690076,0.0036651916,-0.012217305,0.002443461,10064690076,54.179688
10064692356,-0.7369894,-9.762716,0.2440679,10064692356,-0.0012217305,-0.012217305,0.0036651916,10064692356,54.179688
10064694637,-0.7465607,-9.757931,0.23449662,10064694637,-0.002443461,-0.014660766,0.002443461,10064694637,54.179688
10064696917,-0.7322037,-9.767502,0.2440679,10064696917,-0.002443461,-0.013439035,0.002443461,10064696917,54.179688
10064699197,-0.7465607,-9.777073,0.22013968,10064699197,0,-0.012217305,0.0012217305,10064699197,54.179688
10064701478,-0.74177504,-9.777073,0.22013968,10064701478,0.0012217305,-0.010995574,0,10064701478,54.179688
10064703758,-0.7704889,-9.772287,0.23449662,10064703758,-0.0012217305,-0.013439035,0,10064703758,54.20703
10064706039,-0.76570326,-9.777073,0.24885355,10064706039,0.0012217305,-0.014660766,0.0036651916,10064706039,54.20703
10064708319,-0.75613195,-9.777073,0.22492532,10064708319,0,-0.012217305,0.0012217305,10064708319,54.20703
10064710611,-0.74177504,-9.772287,0.24885355,10064710611,0.0012217305,-0.010995574,0.0012217305,10064710611,54.20703
10064712891,-0.7513463,-9.786645,0.23449662,10064712891,0,-0.010995574,0.002443461,10064712891,54.20703
10064715171,-0.75613195,-9.781859,0.22971097,10064715171,-0.002443461,-0.014660766,0.0036651916,10064715171,54.20703
10064717451,-0.7465607,-9.772287,0.2105684,10064717451,0,-0.014660766,0.002443461,10064717451,54.20703
10064719752,-0.74177504,-9.79143,0.22492532,10064719752,-0.0036651916,-0.013439035,0.0012217305,10064719752,54.20703
10064722033,-0.7465607,-9.753145,0.22971097,10064722033,-0.002443461,-0.012217305,0.0036651916,10064722033,54.164062
10064724313,-0.75613195,-9.777073,0.22013968,10064724313,-0.0012217305,-0.010995574,0.0036651916,10064724313,54.164062
10064726593,-0.7465607,-9.767502,0.22971097,10064726593,0,-0.014660766,0.002443461,10064726593,54.164062
10064728873,-0.75613195,-9.762716,0.21535404,10064728873,-0.002443461,-0.013439035,0.002443461,10064728873,54.164062
10064731151,-0.7513463,-9.767502,0.22492532,10064731151,0,-0.014660766,0.002443461,10064731151,54.164062
10064733431,-0.7513463,-9.781859,0.22971097,10064733431,-0.0012217305,-0.013439035,0.0012217305,10064733431,54.164062
10064735712,-0.7465607,-9.772287,0.22971097,10064735712,-0.0061086523,-0.014660766,0,10064735712,54.164062
10064737992,-0.7465607,-9.781859,0.22971097,10064737992,-0.0012217305,-0.013439035,0.0012217305,10064737992,54.164062
10064740274,-0.7465607,-9.772287,0.22492532,10064740274,0.0012217305,-0.013439035,0.002443461,10064740274,54.19922
10064742554,-0.74177504,-9.767502,0.22013968,10064742554,0,-0.012217305,0.002443461,10064742554,54.19922
10064744834,-0.76570326,-9.753145,0.22971097,10064744834,-0.002443461,-0.010995574,0.0036651916,10064744834,54.19922
10064747115,-0.7609176,-9.772287,0.23449662,10064747115,-0.002443461,-0.014660766,0.002443461,10064747115,54.19922
10064749840,-0.76570326,-9.772287,0.2440679,10064749840,-0.002443461,-0.014660766,0.002443461,10064749840,54.19922
10064751669,-0.7609176,-9.757931,0.2440679,10064751669,-0.0036651916,-0.010995574,0.002443461,10064751669,54.19922
10064753950,-0.7369894,-9.781859,0.22971097,10064753950,-0.0036651916,-0.012217305,0.002443461,10064753950,54.19922
10064756230,-0.72741807,-9.777073,0.22013968,10064756230,-0.0036651916,-0.013439035,0.0012217305,10064756230,54.19922
10064758510,-0.74177504,-9.762716,0.21535404,10064758510,-0.004886922,-0.013439035,0.002443461,10064758510,54.15625
10064760802,-0.7369894,-9.781859,0.22013968,10064760802,-0.002443461,-0.014660766,0.0012217305,10064760802,54.15625
10064763082,-0.74177504,-9.767502,0.21535404,10064763082,-0.002443461,-0.013439035,0.0012217305,10064763082,54.15625
10064765362,-0.7369894,-9.777073,0.2009971,10064765362,-0.002443461,-0.013439035,-0.0012217305,10064765362,54.15625
10064767642,-0.72741807,-9.767502,0.2105684,10064767642,-0.0012217305,-0.010995574,0.002443461,10064767642,54.15625
10064769940,-0.7322037,-9.777073,0.21535404,10064769940,-0.0012217305,-0.010995574,0,10064769940,54.15625
10064772220,-0.7465607,-9.772287,0.2009971,10064772220,-0.002443461,-0.013439035,0,10064772220,54.15625
10064774501,-0.75613195,-9.772287,0.22971097,10064774501,-0.0036651916,-0.012217305,0.0012217305,10064774501,54.15625
10064776781,-0.7513463,-9.767502,0.20578274,10064776781,-0.002443461,-0.010995574,0.002443461,10064776781,54.20703
10064779061,-0.74177504,-9.781859,0.22971097,10064779061,0.0012217305,-0.010995574,0.002443461,10064779061,54.20703
10064781347,-0.7369894,-9.786645,0.23449662,10064781347,-0.0012217305,-0.013439035,0.0012217305,10064781347,54.20703
10064783627,-0.7369894,-9.777073,0.22492532,10064783627,-0.002443461,-0.009773844,0.0012217305,10064783627,54.20703
10064785908,-0.75613195,-9.757931,0.22013968,10064785908,-0.0012217305,-0.012217305,0.0012217305,10064785908,54.20703
10064788188,-0.74177504,-9.762716,0.22492532,10064788188,0,-0.012217305,0.0012217305,10064788188,54.20703
10064790461,-0.7322037,-9.772287,0.22013968,10064790461,-0.0012217305,-0.013439035,0.0012217305,10064790461,54.20703
10064792741,-0.7322037,-9.772287,0.22971097,10064792741,-0.0036651916,-0.012217305,0.002443461,10064792741,54.20703
10064795021,-0.74177504,-9.762716,0.2009971,10064795021,-0.002443461,-0.012217305,0.0012217305,10064795021,54.214844
10064797301,-0.76570326,-9.767502,0.22013968,10064797301,-0.0036651916,-0.012217305,0.0012217305,10064797301,54.214844
10064799744,-0.75613195,-9.786645,0.21535404,10064799744,-0.0036651916,-0.012217305,0.0012217305,10064799744,54.214844
10064801882,-0.7609176,-9.781859,0.2105684,10064801882,-0.0036651916,-0.013439035,0,10064801882,54.214844
10064804163,-0.7322037,-9.762716,0.20578274,10064804163,-0.0036651916,-0.012217305,0,10064804163,54.214844
10064806443,-0.75613195,-9.767502,0.2009971,10064806443,-0.002443461,-0.010995574,0.0036651916,10064806443,54.214844
10064808723,-0.7369894,-9.757931,0.2009971,10064808723,0.0012217305,-0.012217305,0.0012217305,10064808723,54.214844
10064810991,-0.74177504,-9.767502,0.2105684,10064810991,-0.002443461,-0.009773844,0.0012217305,10064810991,54.214844
10064813272,-0.7609176,-9.772287,0.22013968,10064813272,-0.004886922,-0.012217305,0.0012217305,10064813272,54.164062
10064815552,-0.7465607,-9.772287,0.20578274,10064815552,-0.0036651916,-0.010995574,0,10064815552,54.164062
10064817832,-0.74177504,-9.786645,0.22013968,10064817832,0.0012217305,-0.012217305,0.0012217305,10064817832,54.164062
10064820123,-0.7322037,-9.777073,0.21535404,10064820123,-0.0012217305,-0.012217305,0.002443461,10064820123,54.164062
10064822403,-0.76570326,-9.772287,0.23449662,10064822403,-0.004886922,-0.010995574,0.0012217305,10064822403,54.164062
10064824683,-0.7465607,-9.762716,0.22492532,10064824683,-0.002443461,-0.009773844,0,10064824683,54.164062
10064826963,-0.72263247,-9.781859,0.22492532,10064826963,-0.0012217305,-0.009773844,0.0012217305,10064826963,54.164062
10064829701,-0.7465607,-9.777073,0.23449662,10064829701,-0.0036651916,-0.012217305,0.0012217305,10064829701,54.164062
10064831530,-0.7465607,-9.777073,0.21535404,10064831530,-0.0012217305,-0.010995574,0.002443461,10064831530,54.179688
10064833811,-0.7465607,-9.777073,0.22492532,10064833811,0,-0.010995574,0.0036651916,10064833811,54.179688
10064836091,-0.7609176,-9.79143,0.2105684,10064836091,-0.0036651916,-0.012217305,0.0012217305,10064836091,54.179688
10064838371,-0.7465607,-9.772287,0.2009971,10064838371,-0.0012217305,-0.009773844,0.0012217305,10064838371,54.179688
10064840663,-0.7513463,-9.772287,0.21535404,10064840663,-0.002443461,-0.012217305,0.0012217305,10064840663,54.179688
10064842943,-0.7513463,-9.757931,0.22492532,10064842943,-0.0012217305,-0.010995574,0.0012217305,10064842943,54.179688
10064845224,-0.7609176,-9.781859,0.22013968,10064845224,-0.004886922,-0.009773844,0.0036651916,10064845224,54.179688
10064847504,-0.74177504,-9.767502,0.22013968,10064847504,-0.0061086523,-0.009773844,0.0012217305,10064847504,54.179688
10064849780,-0.72741807,-9.772287,0.2105684,10064849780,-0.0012217305,-0.010995574,0.0012217305,10064849780,54.19922
10064852060,-0.7513463,-9.777073,0.2105684,10064852060,0,-0.009773844,0.0012217305,10064852060,54.19922
10064854340,-0.7513463,-9.781859,0.22971097,10064854340,-0.002443461,-0.008552114,0.0036651916,10064854340,54.19922
10064856621,-0.7609176,-9.777073,0.20578274,10064856621,-0.0012217305,-0.009773844,0.002443461,10064856621,54.19922
10064858901,-0.75613195,-9.772287,0.21535404,10064858901,0,-0.012217305,0.002443461,10064858901,54.19922
10064861203,-0.7465607,-9.772287,0.2009971,10064861203,0,-0.012217305,0.002443461,10064861203,54.19922
10064863484,-0.7369894,-9.772287,0.22492532,10064863484,-0.002443461,-0.010995574,0.0036651916,10064863484,54.19922
10064865764,-0.7465607,-9.767502,0.22492532,10064865764,-0.002443461,-0.010995574,0.0036651916,10064865764,54.19922
10064868044,-0.7322037,-9.772287,0.2440679,10064868044,-0.0012217305,-0.009773844,0.0012217305,10064868044,54.15625
10064870314,-0.74177504,-9.767502,0.21535404,10064870314,-0.004886922,-0.010995574,0.0012217305,10064870314,54.15625
10064872594,-0.74177504,-9.762716,0.22013968,10064872594,-0.0036651916,-0.009773844,0.0012217305,10064872594,54.15625
10064874874,-0.7369894,-9.772287,0.23449662,10064874874,0,-0.009773844,0.002443461,10064874874,54.15625
10064877154,-0.74177504,-9.781859,0.21535404,10064877154,-0.0036651916,-0.012217305,0.002443461,10064877154,54.15625
10064879703,-0.7609176,-9.767502,0.22013968,10064879703,-0.002443461,-0.009773844,0.002443461,10064879703,54.15625
10064881723,-0.74177504,-9.753145,0.20578274,10064881723,-0.002443461,-0.010995574,0.0036651916,10064881723,54.15625
10064884003,-0.75613195,-9.772287,0.2105684,10064884003,-0.0012217305,-0.013439035,0.002443461,10064884003,54.15625
10064886283,-0.7513463,-9.777073,0.21535404,10064886283,0,-0.009773844,0.0012217305,10064886283,54.171875
10064888563,-0.7369894,-9.772287,0.21535404,10064888563,-0.002443461,-0.010995574,0.0012217305,10064888563,54.171875
10064890845,-0.7465607,-9.767502,0.22492532,10064890845,-0.0061086523,-0.010995574,0,10064890845,54.171875
10064893125,-0.7513463,-9.762716,0.24885355,10064893125,-0.0012217305,-0.009773844,0.002443461,10064893125,54.171875
10064895406,-0.74177504,-9.762716,0.22492532,10064895406,-0.0012217305,-0.009773844,0.004886922,10064895406,54.171875
10064897686,-0.74177504,-9.777073,0.22492532,10064897686,-0.0036651916,-0.009773844,0.004886922,10064897686,54.171875
10064899990,-0.7465607,-9.786645,0.22492532,10064899990,-0.002443461,-0.010995574,0.0036651916,10064899990,54.171875
10064902270,-0.7465607,-9.777073,0.20578274,10064902270,-0.004886922,-0.012217305,0.0036651916,10064902270,54.171875
10064904550,-0.75613195,-9.757931,0.22492532,10064904550,-0.002443461,-0.012217305,0.002443461,10064904550,54.148438
10064906830,-0.75613195,-9.781859,0.23449662,10064906830,-0.0012217305,-0.010995574,0.0012217305,10064906830,54.148438
10064909111,-0.7465607,-9.79143,0.22492532,10064909111,-0.0036651916,-0.012217305,0.004886922,10064909111,54.148438
10064911385,-0.7465607,-9.786645,0.22492532,10064911385,-0.0012217305,-0.010995574,0.004886922,10064911385,54.148438
10064913665,-0.74177504,-9.753145,0.22492532,10064913665,-0.0012217305,-0.009773844,0.0036651916,10064913665,54.148438
10064915945,-0.7369894,-9.767502,0.22971097,10064915945,-0.002443461,-0.012217305,0.0012217305,10064915945,54.148438
10064918226,-0.7322037,-9.762716,0.22971097,10064918226,-0.0012217305,-0.014660766,0.0012217305,10064918226,54.148438
10064920515,-0.7369894,-9.781859,0.22971097,10064920515,0.0012217305,-0.012217305,0.0036651916,10064920515,54.148438
10064922795,-0.7513463,-9.762716,0.22013968,10064922795,0,-0.009773844,0.002443461,10064922795,54.179688
10064925076,-0.7322037,-9.777073,0.22013968,10064925076,-0.0036651916,-0.010995574,0.0012217305,10064925076,54.179688
10064927356,-0.7322037,-9.781859,0.21535404,10064927356,-0.004886922,-0.010995574,0.0012217305,10064927356,54.179688
10064929857,-0.7322037,-9.781859,0.23449662,10064929857,-0.0036651916,-0.009773844,0.0012217305,10064929857,54.179688
10064931924,-0.76570326,-9.772287,0.22971097,10064931924,0,-0.014660766,0.0012217305,10064931924,54.179688
10064934204,-0.75613195,-9.767502,0.23449662,10064934204,-0.002443461,-0.012217305,0,10064934204,54.179688
10064936485,-0.7369894,-9.772287,0.22013968,10064936485,0,-0.010995574,0.0012217305,10064936485,54.179688
10064938765,-0.7465607,-9.762716,0.2009971,10064938765,0,-0.010995574,0.002443461,10064938765,54.179688
10064941053,-0.76570326,-9.772287,0.22492532,10064941053,-0.0012217305,-0.009773844,0.0012217305,10064941053,54.179688
10064943333,-0.74177504,-9.74836,0.20578274,10064943333,-0.002443461,-0.010995574,0.002443461,10064943333,54.179688
10064945613,-0.75613195,-9.767502,0.23449662,10064945613,-0.0036651916,-0.009773844,0.0012217305,10064945613,54.179688
10064947894,-0.75613195,-9.786645,0.22492532,10064947894,-0.002443461,-0.010995574,0.0012217305,10064947894,54.179688
10064950173,-0.7513463,-9.781859,0.20578274,10064950173,-0.002443461,-0.012217305,0.0036651916,10064950173,54.179688
10064952453,-0.7513463,-9.772287,0.20578274,10064952453,-0.0036651916,-0.009773844,0.002443461,10064952453,54.179688
10064954734,-0.7322037,-9.786645,0.22013968,10064954734,0,-0.012217305,0.0012217305,10064954734,54.179688
10064957014,-0.7513463,-9.767502,0.22013968,10064957014,-0.0012217305,-0.012217305,0,10064957014,54.179688
10064959705,-0.7513463,-9.772287,0.21535404,10064959705,0.0012217305,-0.010995574,0,10064959705,54.164062
10064961582,-0.76570326,-9.767502,0.22013968,10064961582,-0.002443461,-0.010995574,0.0012217305,10064961582,54.164062
10064963862,-0.7609176,-9.762716,0.20578274,10064963862,-0.004886922,-0.012217305,0.002443461,10064963862,54.164062
10064966143,-0.72741807,-9.753145,0.2009971,10064966143,-0.0012217305,-0.010995574,0.0036651916,10064966143,54.164062
10064968423,-0.75613195,-9.781859,0.2105684,10064968423,0.0012217305,-0.010995574,0.0036651916,10064968423,54.164062
10064970709,-0.7609176,-9.757931,0.22013968,10064970709,-0.0012217305,-0.012217305,0.002443461,10064970709,54.164062
10064972989,-0.75613195,-9.772287,0.22492532,10064972989,-0.002443461,-0.012217305,0.0036651916,10064972989,54.164062
10064975269,-0.7513463,-9.781859,0.23449662,10064975269,-0.0036651916,-0.009773844,0.0012217305,10064975269,54.164062
10064977549,-0.7609176,-9.777073,0.22492532,10064977549,-0.0036651916,-0.008552114,0.0012217305,10064977549,54.171875
10064979837,-0.7322037,-9.772287,0.22492532,10064979837,-0.0036651916,-0.008552114,0.0012217305,10064979837,54.171875
10064982117,-0.7465607,-9.762716,0.22013968,10064982117,-0.002443461,-0.010995574,0.0012217305,10064982117,54.171875
10064984397,-0.74177504,-9.762716,0.23928227,10064984397,0.002443461,-0.012217305,0.002443461,10064984397,54.171875
10064986677,-0.7369894,-9.762716,0.22971097,10064986677,0,-0.010995574,0.0012217305,10064986677,54.171875
10064988958,-0.72741807,-9.781859,0.23449662,10064988958,0,-0.010995574,0.0036651916,10064988958,54.171875
10064991237,-0.74177504,-9.781859,0.22013968,10064991237,-0.0036651916,-0.009773844,0.0036651916,10064991237,54.171875
10064993517,-0.7513463,-9.781859,0.22492532,10064993517,-0.0012217305,-0.008552114,0.002443461,10064993517,54.171875
10064995797,-0.75613195,-9.767502,0.21535404,10064995797,-0.0012217305,-0.012217305,0,10064995797,54.20703
10064998078,-0.7704889,-9.777073,0.20578274,10064998078,0,-0.010995574,0,10064998078,54.20703
10065000360,-0.7369894,-9.762716,0.22013968,10065000360,-0.0012217305,-0.009773844,0.002443461,10065000360,54.20703
10065002640,-0.7322037,-9.767502,0.2009971,10065002640,-0.0012217305,-0.010995574,0.0036651916,10065002640,54.20703
10065004921,-0.7369894,-9.767502,0.21535404,10065004921,-0.002443461,-0.012217305,0.0012217305,10065004921,54.20703
10065007201,-0.7465607,-9.786645,0.22492532,10065007201,-0.0036651916,-0.010995574,0.0036651916,10065007201,54.20703
10065009712,-0.7465607,-9.777073,0.23928227,10065009712,-0.0012217305,-0.010995574,0.004886922,10065009712,54.20703
10065011779,-0.74177504,-9.781859,0.23928227,10065011779,-0.002443461,-0.010995574,0.0036651916,10065011779,54.20703
10065014059,-0.74177504,-9.767502,0.22971097,10065014059,-0.0036651916,-0.009773844,0.0036651916,10065014059,54.15625
10065016340,-0.7513463,-9.786645,0.22013968,10065016340,-0.002443461,-0.010995574,0.0036651916,10065016340,54.15625
10065018620,-0.74177504,-9.762716,0.22971097,10065018620,0.0012217305,-0.010995574,0.002443461,10065018620,54.15625
10065020897,-0.7513463,-9.772287,0.23928227,10065020897,-0.0012217305,-0.009773844,0.002443461,10065020897,54.15625
10065023177,-0.74177504,-9.777073,0.22971097,10065023177,-0.004886922,-0.0061086523,0.0036651916,10065023177,54.15625
10065025457,-0.75613195,-9.781859,0.2105684,10065025457,-0.002443461,-0.009773844,0.0036651916,10065025457,54.15625
10065027737,-0.7513463,-9.762716,0.22492532,10065027737,0.0012217305,-0.009773844,0.002443461,10065027737,54.15625
10065030036,-0.74177504,-9.743574,0.23449662,10065030036,-0.002443461,-0.010995574,0,10065030036,54.15625
10065032316,-0.75613195,-9.767502,0.23928227,10065032316,0,-0.010995574,0.0012217305,10065032316,54.140625
10065034597,-0.7513463,-9.767502,0.23449662,10065034597,-0.0012217305,-0.010995574,0.002443461,10065034597,54.140625
10065036877,-0.7369894,-9.767502,0.22971097,10065036877,0,-0.010995574,0.002443461,10065036877,54.140625
10065039157,-0.75613195,-9.786645,0.2105684,10065039157,-0.0012217305,-0.009773844,0.0012217305,10065039157,54.140625
10065041442,-0.7369894,-9.781859,0.21535404,10065041442,-0.0012217305,-0.009773844,0.002443461,10065041442,54.140625
10065043722,-0.75613195,-9.772287,0.22013968,10065043722,-0.0012217305,-0.010995574,0.002443461,10065043722,54.140625
10065046003,-0.75613195,-9.762716,0.22971097,10065046003,0,-0.012217305,0.0036651916,10065046003,54.140625
10065048283,-0.7322037,-9.762716,0.22492532,10065048283,-0.002443461,-0.009773844,0,10065048283,54.140625
10065050558,-0.7465607,-9.767502,0.22013968,10065050558,-0.002443461,-0.010995574,0.0012217305,10065050558,54.15625
10065052838,-0.7513463,-9.781859,0.23449662,10065052838,-0.0012217305,-0.010995574,0.002443461,10065052838,54.15625
10065055118,-0.7465607,-9.762716,0.23928227,10065055118,-0.004886922,-0.008552114,0.0012217305,10065055118,54.15625
10065057398,-0.7369894,-9.777073,0.22492532,10065057398,-0.004886922,-0.012217305,0.0012217305,10065057398,54.15625
10065059742,-0.7465607,-9.772287,0.20578274,10065059742,-0.002443461,-0.008552114,0.0036651916,10065059742,54.15625
10065061975,-0.7369894,-9.767502,0.23449662,10065061975,-0.002443461,-0.008552114,0.002443461,10065061975,54.15625
10065064256,-0.7369894,-9.757931,0.22971097,10065064256,-0.0012217305,-0.009773844,0.0012217305,10065064256,54.15625
10065066536,-0.75613195,-9.757931,0.23928227,10065066536,-0.002443461,-0.010995574,0.0012217305,10065066536,54.15625
10065068816,-0.76570326,-9.767502,0.22971097,10065068816,-0.0036651916,-0.008552114,0,10065068816,54.171875
10065071091,-0.7465607,-9.777073,0.23449662,10065071091,-0.004886922,-0.010995574,0.0012217305,10065071091,54.171875
10065073371,-0.74177504,-9.767502,0.23928227,10065073371,-0.004886922,-0.009773844,0.0036651916,10065073371,54.171875
10065075651,-0.7609176,-9.781859,0.24885355,10065075651,0,-0.012217305,0.002443461,10065075651,54.171875
10065077931,-0.75613195,-9.772287,0.23449662,10065077931,-0.002443461,-0.012217305,0.0012217305,10065077931,54.171875
10065080230,-0.7513463,-9.772287,0.23928227,10065080230,-0.002443461,-0.013439035,0.002443461,10065080230,54.171875
10065082510,-0.74177504,-9.786645,0.2440679,10065082510,-0.0012217305,-0.010995574,0.0012217305,10065082510,54.171875
10065084791,-0.7369894,-9.772287,0.23928227,10065084791,-0.0012217305,-0.010995574,0.0012217305,10065084791,54.171875
10065087071,-0.7369894,-9.772287,0.2536392,10065087071,-0.0036651916,-0.009773844,0.0036651916,10065087071,54.164062
10065090215,-0.75613195,-9.762716,0.2536392,10065090215,-0.0012217305,-0.010995574,0.002443461,10065090215,54.164062
10065091617,-0.7465607,-9.781859,0.2440679,10065091617,-0.002443461,-0.007330383,0.0036651916,10065091617,54.164062
10065093897,-0.75613195,-9.781859,0.22971097,10065093897,-0.0036651916,-0.012217305,0,10065093897,54.164062
10065096177,-0.7704889,-9.786645,0.2536392,10065096177,-0.004886922,-0.013439035,0.0012217305,10065096177,54.164062
10065098458,-0.74177504,-9.781859,0.2536392,10065098458,-0.004886922,-0.010995574,0.002443461,10065098458,54.164062
10065100766,-0.75613195,-9.767502,0.23449662,10065100766,-0.0012217305,-0.013439035,0.002443461,10065100766,54.164062
10065103046,-0.7609176,-9.767502,0.2536392,10065103046,0,-0.014660766,0.0036651916,10065103046,54.164062
10065105326,-0.7513463,-9.772287,0.21535404,10065105326,0,-0.012217305,0.004886922,10065105326,54.179688
10065107606,-0.75613195,-9.777073,0.22971097,10065107606,-0.0036651916,-0.012217305,0.002443461,10065107606,54.179688
10065109874,-0.7465607,-9.772287,0.23449662,10065109874,-0.002443461,-0.013439035,0.002443461,10065109874,54.179688
10065112155,-0.7609176,-9.767502,0.22971097,10065112155,-0.002443461,-0.013439035,-0.0012217305,10065112155,54.179688
10065114435,-0.7322037,-9.777073,0.23928227,10065114435,0,-0.012217305,0.002443461,10065114435,54.179688
10065116715,-0.7513463,-9.762716,0.22971097,10065116715,0,-0.010995574,0.002443461,10065116715,54.179688
10065118995,-0.75613195,-9.772287,0.2440679,10065118995,-0.0012217305,-0.013439035,0.0012217305,10065118995,54.179688
10065121286,-0.7369894,-9.762716,0.23449662,10065121286,-0.0012217305,-0.013439035,0.0012217305,10065121286,54.179688
10065123566,-0.7609176,-9.762716,0.23928227,10065123566,-0.002443461,-0.009773844,0.0012217305,10065123566,54.1875
10065125847,-0.75613195,-9.781859,0.23449662,10065125847,-0.004886922,-0.012217305,0.002443461,10065125847,54.1875
10065128127,-0.76570326,-9.767502,0.20578274,10065128127,-0.0036651916,-0.013439035,0.0012217305,10065128127,54.1875
10065130404,-0.75613195,-9.757931,0.21535404,10065130404,0,-0.013439035,0.0036651916,10065130404,54.1875
10065132684,-0.74177504,-9.767502,0.23449662,10065132684,-0.002443461,-0.012217305,0.002443461,10065132684,54.1875
10065134964,-0.7513463,-9.753145,0.22971097,10065134964,-0.0036651916,-0.012217305,0.0036651916,10065134964,54.1875
10065137245,-0.75613195,-9.777073,0.23449662,10065137245,-0.002443461,-0.012217305,0.0012217305,10065137245,54.1875
10065139710,-0.75613195,-9.772287,0.22971097,10065139710,-0.002443461,-0.013439035,0.002443461,10065139710,54.1875
10065141825,-0.7465607,-9.762716,0.2105684,10065141825,0,-0.010995574,0.0036651916,10065141825,54.179688
10065144105,-0.75613195,-9.762716,0.2440679,10065144105,-0.002443461,-0.012217305,0.0012217305,10065144105,54.179688
10065146385,-0.7369894,-9.767502,0.22971097,10065146385,-0.002443461,-0.014660766,0.0012217305,10065146385,54.179688
10065148665,-0.7465607,-9.767502,0.2536392,10065148665,-0.002443461,-0.014660766,0.0036651916,10065148665,54.179688
10065150945,-0.7369894,-9.777073,0.23449662,10065150945,-0.002443461,-0.013439035,0.0012217305,10065150945,54.179688
10065153225,-0.7465607,-9.772287,0.23928227,10065153225,-0.002443461,-0.012217305,0.0036651916,10065153225,54.179688
10065155506,-0.7465607,-9.79143,0.22971097,10065155506,-0.002443461,-0.012217305,0.002443461,10065155506,54.179688
10065157786,-0.7609176,-9.777073,0.22971097,10065157786,-0.004886922,-0.010995574,0.002443461,10065157786,54.179688
10065160084,-0.7369894,-9.772287,0.22492532,10065160084,0,-0.012217305,0.0012217305,10065160084,54.171875
10065162364,-0.75613195,-9.767502,0.21535404,10065162364,-0.004886922,-0.013439035,0.0012217305,10065162364,54.171875
10065164644,-0.75613195,-9.777073,0.23928227,10065164644,0,-0.014660766,0.0036651916,10065164644,54.171875
10065166924,-0.7513463,-9.753145,0.2440679,10065166924,-0.0012217305,-0.012217305,0.0012217305,10065166924,54.171875
10065169205,-0.7609176,-9.772287,0.24885355,10065169205,0.0012217305,-0.012217305,0.004886922,10065169205,54.171875
10065171469,-0.7513463,-9.772287,0.23928227,10065171469,-0.0036651916,-0.012217305,0.0036651916,10065171469,54.171875
10065173749,-0.74177504,-9.762716,0.23449662,10065173749,-0.0012217305,-0.012217305,0.0036651916,10065173749,54.171875
10065176029,-0.74177504,-9.757931,0.21535404,10065176029,-0.002443461,-0.012217305,0.0012217305,10065176029,54.171875
10065178310,-0.7513463,-9.757931,0.22013968,10065178310,-0.0036651916,-0.014660766,0.0012217305,10065178310,54.23047
10065180598,-0.7513463,-9.772287,0.20578274,10065180598,0,-0.014660766,0.002443461,10065180598,54.23047
10065182878,-0.7465607,-9.781859,0.23449662,10065182878,0.0012217305,-0.012217305,0.0012217305,10065182878,54.23047
10065185158,-0.7609176,-9.772287,0.22492532,10065185158,0.0012217305,-0.010995574,0.0012217305,10065185158,54.23047
10065187438,-0.7513463,-9.786645,0.23449662,10065187438,-0.0036651916,-0.010995574,0,10065187438,54.23047
10065189726,-0.7513463,-9.757931,0.22013968,10065189726,0,-0.012217305,0.0012217305,10065189726,54.23047
10065192007,-0.7513463,-9.762716,0.21535404,10065192007,0,-0.010995574,0.0036651916,10065192007,54.23047
10065194287,-0.7609176,-9.781859,0.2009971,10065194287,0.0012217305,-0.010995574,0.0036651916,10065194287,54.23047
10065196567,-0.7178468,-9.753145,0.2009971,10065196567,-0.0012217305,-0.010995574,0.0036651916,10065196567,54.171875
10065198847,-0.7513463,-9.74836,0.22013968,10065198847,-0.002443461,-0.012217305,0.002443461,10065198847,54.171875
10065201133,-0.7513463,-9.786645,0.22013968,10065201133,0,-0.012217305,0,10065201133,54.171875
10065203413,-0.75613195,-9.772287,0.23449662,10065203413,0.002443461,-0.013439035,0.0012217305,10065203413,54.171875
10065205694,-0.72741807,-9.772287,0.19621146,10065205694,-0.002443461,-0.012217305,0.004886922,10065205694,54.171875
10065207974,-0.7369894,-9.767502,0.22971097,10065207974,-0.002443461,-0.013439035,0.002443461,10065207974,54.171875
10065210261,-0.7369894,-9.777073,0.22971097,10065210261,-0.002443461,-0.013439035,0.0012217305,10065210261,54.171875
10065212541,-0.74177504,-9.772287,0.22013968,10065212541,0,-0.014660766,0.0012217305,10065212541,54.171875
10065214821,-0.72741807,-9.757931,0.22971097,10065214821,-0.0036651916,-0.012217305,0,10065214821,54.214844
10065217102,-0.7322037,-9.74836,0.21535404,10065217102,-0.002443461,-0.012217305,0.0012217305,10065217102,54.214844
10065219742,-0.7609176,-9.767502,0.20578274,10065219742,0,-0.013439035,0.0012217305,10065219742,54.214844
10065221666,-0.7513463,-9.767502,0.2105684,10065221666,-0.0012217305,-0.012217305,0.002443461,10065221666,54.214844
10065223947,-0.7369894,-9.767502,0.22013968,10065223947,-0.0036651916,-0.010995574,0.002443461,10065223947,54.214844
