accelerationTimestamp,accelerationX,accelerationY,accelerationZ,angularSpeedTimestamp,angularSpeedX,angularSpeedY,angularSpeedZ,temperatureTimestamp,temperature
10062830505,-0.97507524,-10.034302,0.11365908,10062830505,0.0036651916,-0.0067195175,0,10062830505,52.601562
10062839588,-0.9762716,-10.04148,0.10887343,10062839588,0.004276057,-0.0061086523,0.00061086525,10062839588,52.601562
10062848661,-0.9798609,-10.031909,0.11246266,10062848661,0.004276057,-0.0061086523,0.0012217305,10062848661,52.609375
10062857745,-0.9774681,-10.034302,0.104087785,10062857745,0.004276057,-0.0067195175,0.0012217305,10062857745,52.609375
10062866841,-0.971486,-10.031909,0.09930214,10062866841,0.0036651916,-0.0061086523,0.0012217305,10062866841,52.628906
10062875921,-0.9774681,-10.029516,0.10887343,10062875921,0.0036651916,-0.005497787,0.00061086525,10062875921,52.628906
10062885000,-0.9822537,-10.034302,0.10049855,10062885000,0.005497787,-0.0061086523,0.0012217305,10062885000,52.60547
10062894080,-0.97866446,-10.039087,0.09212367,10062894080,0.004886922,-0.0061086523,0.0012217305,10062894080,52.60547
10062903156,-0.9762716,-10.037891,0.09451649,10062903156,0.004276057,-0.0067195175,0.0018325958,10062903156,52.578125
10062912254,-0.9762716,-10.043873,0.09451649,10062912254,0.004276057,-0.005497787,0.0018325958,10062912254,52.578125
10062921331,-0.9702896,-10.042677,0.08015956,10062921331,0.004276057,-0.004886922,0.0012217305,10062921331,52.585938
10062930432,-0.9738788,-10.039087,0.08135597,10062930432,0.004276057,-0.004276057,0.00061086525,10062930432,52.585938
10062939514,-0.9822537,-10.036695,0.08733802,10062939514,0.004886922,-0.005497787,0.0012217305,10062939514,52.609375
10062948581,-0.9906286,-10.029516,0.08255238,10062948581,0.004886922,-0.0061086523,0.0018325958,10062948581,52.609375
10062957666,-0.9870393,-10.037891,0.09092726,10062957666,0.004276057,-0.004276057,0.0012217305,10062957666,52.601562
10062966758,-0.97507524,-10.040284,0.083748795,10062966758,0.005497787,-0.0036651916,0.0012217305,10062966758,52.601562
10062975851,-0.9762716,-10.034302,0.09451649,10062975851,0.004276057,-0.0036651916,0.00061086525,10062975851,52.609375
10062984919,-0.9810573,-10.025927,0.09930214,10062984919,0.0036651916,-0.002443461,0.0018325958,10062984919,52.609375
10062994016,-0.9834501,-10.034302,0.09092726,10062994016,0.0036651916,-0.0030543262,0.0018325958,10062994016,52.617188
10063003097,-0.9846465,-10.033105,0.10289137,10063003097,0.004886922,-0.002443461,0.0012217305,10063003097,52.617188
10063012169,-0.97507524,-10.031909,0.09810573,10063012169,0.004886922,-0.0036651916,0.0018325958,10063012169,52.625
10063021250,-0.9798609,-10.039087,0.09451649,10063021250,0.004276057,-0.0036651916,0.002443461,10063021250,52.625
10063030334,-0.9822537,-10.037891,0.09571291,10063030334,0.004886922,-0.0036651916,0.0012217305,10063030334,52.628906
10063039416,-0.9798609,-10.033105,0.09571291,10063039416,0.004886922,-0.005497787,0.0012217305,10063039416,52.628906
10063048517,-0.97866446,-10.04148,0.09930214,10063048517,0.004276057,-0.004276057,0.0012217305,10063048517,52.61328
10063057596,-0.9846465,-10.027123,0.09332009,10063057596,0.004886922,-0.002443461,0.0012217305,10063057596,52.61328
10063066688,-0.96789676,-10.042677,0.096909314,10063066688,0.004276057,-0.0030543262,0.0018325958,10063066688,52.628906
10063075753,-0.98584294,-10.043873,0.1052842,10063075753,0.004886922,-0.0030543262,0.0012217305,10063075753,52.628906
10063084848,-0.9810573,-10.034302,0.08973085,10063084848,0.004276057,-0.0036651916,0.0012217305,10063084848,52.566406
10063093921,-0.9870393,-10.023534,0.10049855,10063093921,0.004886922,-0.0036651916,0,10063093921,52.566406
10063103024,-0.9810573,-10.029516,0.09930214,10063103024,0.004886922,-0.0036651916,0.0012217305,10063103024,52.578125
10063112101,-0.991825,-10.024731,0.1052842,10063112101,0.004276057,-0.0036651916,0.0012217305,10063112101,52.578125
10063121182,-0.9810573,-10.036695,0.09332009,10063121182,0.005497787,-0.004886922,0.0012217305,10063121182,52.609375
10063130272,-0.98584294,-10.034302,0.09092726,10063130272,0.005497787,-0.004276057,0.00061086525,10063130272,52.609375
10063139354,-0.971486,-10.04148,0.09930214,10063139354,0.004886922,-0.0036651916,0.00061086525,10063139354,52.625
10063148444,-0.97507524,-10.028319,0.09092726,10063148444,0.004886922,-0.0036651916,0.0012217305,10063148444,52.625
10063157529,-0.9810573,-10.030712,0.09451649,10063157529,0.004886922,-0.002443461,0.00061086525,10063157529,52.59375
10063166599,-0.9870393,-10.033105,0.101694964,10063166599,0.004276057,-0.002443461,0.00061086525,10063166599,52.59375
10063175683,-0.9774681,-10.033105,0.1160519,10063175683,0.004276057,-0.0030543262,0.0018325958,10063175683,52.617188
10063184778,-0.9834501,-10.039087,0.10289137,10063184778,0.004886922,-0.002443461,0.0012217305,10063184778,52.617188
10063193859,-0.9726824,-10.029516,0.11006984,10063193859,0.004886922,-0.0030543262,0.0018325958,10063193859,52.601562
10063202941,-0.9762716,-10.033105,0.10767702,10063202941,0.004886922,-0.002443461,0.0018325958,10063202941,52.601562
10063212038,-0.971486,-10.033105,0.11485548,10063212038,0.004886922,-0.0036651916,0.0012217305,10063212038,52.625
10063221100,-0.9834501,-10.036695,0.11844472,10063221100,0.004886922,-0.0036651916,0.0012217305,10063221100,52.625
10063230211,-0.9762716,-10.029516,0.1052842,10063230211,0.004276057,-0.004886922,0.00061086525,10063230211,52.64453
10063239270,-0.9822537,-10.031909,0.11006984,10063239270,0.004886922,-0.005497787,0.00061086525,10063239270,52.64453
10063248351,-0.9762716,-10.029516,0.1160519,10063248351,0.004276057,-0.004886922,0.0012217305,10063248351,52.628906
10063257453,-0.97507524,-10.030712,0.11246266,10063257453,0.004276057,-0.005497787,0.0012217305,10063257453,52.628906
10063266523,-0.9726824,-10.04148,0.106480606,10063266523,0.004886922,-0.0067195175,0.0018325958,10063266523,52.63672
10063275609,-0.97507524,-10.035499,0.10049855,10063275609,0.004886922,-0.005497787,0.0012217305,10063275609,52.63672
10063284704,-0.9762716,-10.031909,0.10289137,10063284704,0.005497787,-0.004886922,0.00061086525,10063284704,52.58203
10063293789,-0.9846465,-10.034302,0.11246266,10063293789,0.004886922,-0.005497787,0.00061086525,10063293789,52.58203
10063302874,-0.9762716,-10.029516,0.09810573,10063302874,0.002443461,-0.0061086523,0.0018325958,10063302874,52.64453
10063311939,-0.9870393,-10.034302,0.09930214,10063311939,0.004886922,-0.0067195175,0.0012217305,10063311939,52.64453
10063321028,-0.9726824,-10.037891,0.1052842,10063321028,0.004886922,-0.0067195175,0.0012217305,10063321028,52.632812
10063330224,-0.9762716,-10.035499,0.09332009,10063330224,0.004886922,-0.0061086523,0.0018325958,10063330224,52.632812
10063339212,-0.9798609,-10.036695,0.10049855,10063339212,0.004276057,-0.004886922,0.0012217305,10063339212,52.621094
10063348288,-0.9798609,-10.029516,0.096909314,10063348288,0.004276057,-0.005497787,0.0012217305,10063348288,52.621094
10063357365,-0.9726824,-10.033105,0.09451649,10063357365,0.004276057,-0.004886922,0.0012217305,10063357365,52.570312
10063366458,-0.97866446,-10.027123,0.09451649,10063366458,0.0061086523,-0.004276057,0.0012217305,10063366458,52.570312
10063375533,-0.9798609,-10.033105,0.09092726,10063375533,0.004276057,-0.004276057,0.0012217305,10063375533,52.628906
10063384617,-0.9762716,-10.043873,0.08973085,10063384617,0.0036651916,-0.004886922,0.0012217305,10063384617,52.628906
10063393714,-0.9738788,-10.028319,0.096909314,10063393714,0.0036651916,-0.004886922,0.0018325958,10063393714,52.60547
10063402795,-0.9810573,-10.030712,0.09810573,10063402795,0.005497787,-0.0030543262,0.0018325958,10063402795,52.60547
10063411873,-0.97507524,-10.034302,0.09571291,10063411873,0.004886922,-0.0036651916,0.0012217305,10063411873,52.585938
10063420957,-0.9834501,-10.031909,0.09332009,10063420957,0.005497787,-0.004886922,0,10063420957,52.585938
10063430039,-0.9846465,-10.036695,0.106480606,10063430039,0.004886922,-0.004276057,0.0012217305,10063430039,52.585938
10063439136,-0.97507524,-10.027123,0.09930214,10063439136,0.004886922,-0.0036651916,0.0018325958,10063439136,52.585938
10063448211,-0.9738788,-10.039087,0.09092726,10063448211,0.0061086523,-0.004276057,0.0012217305,10063448211,52.625
10063457284,-0.9726824,-10.033105,0.09092726,10063457284,0.0036651916,-0.004886922,0,10063457284,52.625
10063466381,-0.97866446,-10.035499,0.09092726,10063466381,0.0036651916,-0.004886922,0.00061086525,10063466381,52.625
10063475454,-0.9738788,-10.031909,0.104087785,10063475454,0.004276057,-0.004886922,0.0012217305,10063475454,52.625
10063484540,-0.9774681,-10.037891,0.09930214,10063484540,0.005497787,-0.004276057,0.0012217305,10063484540,52.625
10063493626,-0.9870393,-10.035499,0.09332009,10063493626,0.0036651916,-0.004886922,0.0012217305,10063493626,52.625
10063502706,-0.9822537,-10.031909,0.09930214,10063502706,0.0036651916,-0.004886922,0.0012217305,10063502706,52.625
10063511802,-0.9834501,-10.027123,0.10289137,10063511802,0.004886922,-0.004886922,0.0018325958,10063511802,52.625
10063520875,-0.97866446,-10.030712,0.086141616,10063520875,0.004276057,-0.004276057,0.0012217305,10063520875,52.601562
10063529958,-0.9822537,-10.039087,0.08853444,10063529958,0.004886922,-0.0036651916,0.0012217305,10063529958,52.601562
10063539058,-0.9774681,-10.029516,0.09571291,10063539058,0.004886922,-0.004886922,0.00061086525,10063539058,52.59375
10063548142,-0.9834501,-10.035499,0.08853444,10063548142,0.004886922,-0.004276057,0.0012217305,10063548142,52.59375
10063557221,-0.9810573,-10.036695,0.09571291,10063557221,0.0030543262,-0.0030543262,0.00061086525,10063557221,52.585938
10063566310,-0.971486,-10.033105,0.09212367,10063566310,0.004886922,-0.0036651916,0.0012217305,10063566310,52.585938
10063575397,-0.9810573,-10.033105,0.08973085,10063575397,0.004276057,-0.0030543262,0.00061086525,10063575397,52.601562
10063584470,-0.98584294,-10.036695,0.09930214,10063584470,0.004276057,-0.0036651916,0,10063584470,52.601562
10063593554,-0.98584294,-10.029516,0.10887343,10063593554,0.004886922,-0.002443461,0.0012217305,10063593554,52.585938
10063602640,-0.9834501,-10.035499,0.11006984,10063602640,0.004276057,-0.002443461,0.00061086525,10063602640,52.585938
10063611725,-0.98584294,-10.037891,0.09571291,10063611725,0.004886922,-0.002443461,0.0012217305,10063611725,52.578125
10063620804,-0.9822537,-10.031909,0.11485548,10063620804,0.004886922,-0.0030543262,0.0012217305,10063620804,52.578125
10063629887,-0.9762716,-10.027123,0.104087785,10063629887,0.0036651916,-0.002443461,0.00061086525,10063629887,52.609375
10063638970,-0.9798609,-10.030712,0.10289137,10063638970,0.004276057,-0.0030543262,0.00061086525,10063638970,52.609375
10063648049,-0.9798609,-10.031909,0.1160519,10063648049,0.0036651916,-0.0036651916,0.0012217305,10063648049,52.628906
10063657151,-0.971486,-10.036695,0.11485548,10063657151,0.0036651916,-0.004886922,0.0018325958,10063657151,52.628906
10063666227,-0.9846465,-10.025927,0.11006984,10063666227,0.004276057,-0.004276057,0.0012217305,10063666227,52.597656
10063675314,-0.98943216,-10.040284,0.1160519,10063675314,0.004886922,-0.004886922,0.0012217305,10063675314,52.597656
10063684389,-0.9846465,-10.035499,0.11006984,10063684389,0.004276057,-0.005497787,0.00061086525,10063684389,52.617188
10063693476,-0.9846465,-10.035499,0.11964113,10063693476,0.005497787,-0.004886922,0.0012217305,10063693476,52.617188
10063702558,-0.9762716,-10.024731,0.11246266,10063702558,0.004886922,-0.0061086523,0.00061086525,10063702558,52.617188
10063711646,-0.9798609,-10.034302,0.09810573,10063711646,0.004276057,-0.005497787,0.0012217305,10063711646,52.617188
10063720732,-0.9702896,-10.030712,0.10289137,10063720732,0.004276057,-0.005497787,0.0012217305,10063720732,52.625
10063729815,-0.9726824,-10.035499,0.104087785,10063729815,0.005497787,-0.0067195175,0.00061086525,10063729815,52.625
10063738901,-0.9810573,-10.034302,0.11724831,10063738901,0.004886922,-0.005497787,0.0030543262,10063738901,52.609375
10063747991,-0.9774681,-10.033105,0.101694964,10063747991,0.004276057,-0.005497787,0.0012217305,10063747991,52.609375
10063757076,-0.9726824,-10.027123,0.09571291,10063757076,0.0036651916,-0.0061086523,0.0012217305,10063757076,52.59375
10063766155,-0.9738788,-10.036695,0.09332009,10063766155,0.0036651916,-0.004886922,0.0012217305,10063766155,52.59375
10063775232,-0.9798609,-10.034302,0.10049855,10063775232,0.004276057,-0.004886922,0.00061086525,10063775232,52.609375
10063784333,-0.98584294,-10.030712,0.10289137,10063784333,0.004886922,-0.004886922,0.00061086525,10063784333,52.609375
10063793403,-0.9846465,-10.025927,0.096909314,10063793403,0.005497787,-0.004886922,0.0012217305,10063793403,52.601562
10063802493,-0.98584294,-10.022338,0.09571291,10063802493,0.004886922,-0.005497787,0.0012217305,10063802493,52.601562
10063811574,-0.9774681,-10.030712,0.09810573,10063811574,0.004886922,-0.005497787,0.00061086525,10063811574,52.601562
10063820667,-0.9726824,-10.033105,0.1052842,10063820667,0.004276057,-0.004886922,0.00061086525,10063820667,52.601562
10063829749,-0.971486,-10.04148,0.09810573,10063829749,0.004276057,-0.004276057,0.0018325958,10063829749,52.570312
10063838819,-0.9702896,-10.040284,0.09810573,10063838819,0.004886922,-0.004276057,0.002443461,10063838819,52.570312
10063847909,-0.9822537,-10.035499,0.09332009,10063847909,0.004276057,-0.004276057,0.0018325958,10063847909,52.617188
10063856989,-0.9810573,-10.035499,0.09810573,10063856989,0.004276057,-0.004886922,0.0012217305,10063856989,52.617188
10063866080,-0.9822537,-10.042677,0.086141616,10063866080,0.004886922,-0.005497787,0.00061086525,10063866080,52.601562
10063875158,-0.9870393,-10.029516,0.10289137,10063875158,0.0036651916,-0.005497787,0.00061086525,10063875158,52.601562
10063884258,-0.9810573,-10.035499,0.09332009,10063884258,0.0036651916,-0.005497787,0.0018325958,10063884258,52.601562
10063893342,-0.9846465,-10.030712,0.10767702,10063893342,0.004886922,-0.0061086523,0.0012217305,10063893342,52.601562
10063902417,-0.9846465,-10.028319,0.09930214,10063902417,0.0036651916,-0.005497787,0.0018325958,10063902417,52.609375
10063911508,-0.98584294,-10.031909,0.0849452,10063911508,0.004886922,-0.005497787,0.0012217305,10063911508,52.609375
10063920578,-0.97866446,-10.029516,0.101694964,10063920578,0.005497787,-0.004886922,0.0012217305,10063920578,52.625
10063929661,-0.96550393,-10.039087,0.083748795,10063929661,0.004886922,-0.004886922,0.0018325958,10063929661,52.625
10063938752,-0.971486,-10.036695,0.096909314,10063938752,0.0030543262,-0.005497787,0.0012217305,10063938752,52.570312
10063947838,-0.9762716,-10.028319,0.083748795,10063947838,0.004276057,-0.004276057,0.0012217305,10063947838,52.570312
10063950868,-0.9774681,-10.033105,0.08973085,10063950868,0.005497787,-0.004276057,0.0018325958,10063950868,52.617188
10063965995,-0.97866446,-10.037891,0.08853444,10063965995,0.004886922,-0.002443461,0.0018325958,10063965995,52.617188
10063975081,-0.9726824,-10.036695,0.09571291,10063975081,0.004276057,-0.0036651916,0.0012217305,10063975081,52.65625
10063984167,-0.9810573,-10.037891,0.086141616,10063984167,0.004276057,-0.0030543262,0.0018325958,10063984167,52.65625
10063993251,-0.9810573,-10.037891,0.086141616,10063993251,0.004886922,-0.0036651916,0.0012217305,10063993251,52.652344
10064002340,-0.9870393,-10.034302,0.09212367,10064002340,0.004276057,-0.0036651916,0.00061086525,10064002340,52.652344
10064011433,-0.97507524,-10.037891,0.09571291,10064011433,0.004886922,-0.0030543262,0.0012217305,10064011433,52.621094
10064020509,-0.9810573,-10.04148,0.104087785,10064020509,0.0061086523,-0.004276057,0.0012217305,10064020509,52.621094
10064029592,-0.9882358,-10.024731,0.09930214,10064029592,0.004886922,-0.0030543262,0.0012217305,10064029592,52.585938
10064038685,-0.96430755,-10.028319,0.101694964,10064038685,0.004276057,-0.0030543262,0.00061086525,10064038685,52.585938
10064047756,-0.97507524,-10.039087,0.1160519,10064047756,0.004276057,-0.0030543262,0.0012217305,10064047756,52.59375
10064056851,-0.97866446,-10.031909,0.11246266,10064056851,0.0061086523,-0.0030543262,0.002443461,10064056851,52.59375
10064065933,-0.97866446,-10.039087,0.09810573,10064065933,0.005497787,-0.002443461,0.0018325958,10064065933,52.625
10064075019,-0.97866446,-10.043873,0.11246266,10064075019,0.005497787,-0.0036651916,0.0012217305,10064075019,52.625
10064084091,-0.9762716,-10.039087,0.11365908,10064084091,0.005497787,-0.004276057,0.0018325958,10064084091,52.609375
10064093177,-0.97507524,-10.037891,0.1052842,10064093177,0.005497787,-0.0030543262,0.0018325958,10064093177,52.609375
10064102274,-0.9810573,-10.030712,0.10767702,10064102274,0.0061086523,-0.004886922,0.0018325958,10064102274,52.609375
10064111338,-0.9882358,-10.046266,0.106480606,10064111338,0.004886922,-0.0061086523,0.00061086525,10064111338,52.609375
10064120433,-0.9810573,-10.033105,0.11006984,10064120433,0.004886922,-0.005497787,0.0012217305,10064120433,52.585938
10064129516,-0.9738788,-10.039087,0.11246266,10064129516,0.004886922,-0.004886922,0,10064129516,52.585938
10064138596,-0.9762716,-10.035499,0.11006984,10064138596,0.004886922,-0.004276057,0.00061086525,10064138596,52.578125
10064147675,-0.9631111,-10.034302,0.09930214,10064147675,0.005497787,-0.005497787,0.0018325958,10064147675,52.578125
10064156773,-0.97866446,-10.037891,0.09930214,10064156773,0.004886922,-0.005497787,0.0012217305,10064156773,52.578125
10064165865,-0.9762716,-10.029516,0.09930214,10064165865,0.005497787,-0.005497787,0.0012217305,10064165865,52.578125
10064174931,-0.9870393,-10.025927,0.104087785,10064174931,0.004276057,-0.004886922,0.00061086525,10064174931,52.617188
10064184018,-0.9870393,-10.025927,0.10049855,10064184018,0.004276057,-0.005497787,0.00061086525,10064184018,52.617188
10064193103,-0.9762716,-10.024731,0.11246266,10064193103,0.004276057,-0.004886922,0.0012217305,10064193103,52.585938
10064202188,-0.9810573,-10.039087,0.101694964,10064202188,0.002443461,-0.004886922,0,10064202188,52.585938
10064211265,-0.9822537,-10.031909,0.1052842,10064211265,0.004886922,-0.004886922,0.00061086525,10064211265,52.609375
10064220365,-0.9870393,-10.037891,0.1052842,10064220365,0.004276057,-0.005497787,0.0012217305,10064220365,52.609375
10064229448,-0.97507524,-10.031909,0.106480606,10064229448,0.004886922,-0.0036651916,0.0012217305,10064229448,52.601562
10064238532,-0.9762716,-10.030712,0.1052842,10064238532,0.004276057,-0.0030543262,0.0018325958,10064238532,52.601562
10064247599,-0.9726824,-10.030712,0.09571291,10064247599,0.0036651916,-0.004886922,0.0018325958,10064247599,52.625
10064256701,-0.9726824,-10.030712,0.10289137,10064256701,0.004886922,-0.004276057,0.0018325958,10064256701,52.625
10064265770,-0.9822537,-10.034302,0.11964113,10064265770,0.004276057,-0.004276057,0.0012217305,10064265770,52.59375
10064274861,-0.971486,-10.039087,0.12203395,10064274861,0.004276057,-0.004276057,0.0018325958,10064274861,52.59375
10064283951,-0.9726824,-10.031909,0.11006984,10064283951,0.004276057,-0.005497787,0.0030543262,10064283951,52.578125
10064293023,-0.9882358,-10.028319,0.10887343,10064293023,0.004276057,-0.005497787,0.002443461,10064293023,52.578125
10064302124,-0.98943216,-10.036695,0.10049855,10064302124,0.004886922,-0.007330383,0.0018325958,10064302124,52.609375
10064311192,-0.991825,-10.031909,0.104087785,10064311192,0.004886922,-0.007330383,0.0012217305,10064311192,52.609375
10064320289,-0.9810573,-10.030712,0.08973085,10064320289,0.004276057,-0.0061086523,0.0018325958,10064320289,52.609375
10064329372,-0.97866446,-10.034302,0.09332009,10064329372,0.004886922,-0.005497787,0.0018325958,10064329372,52.609375
10064338440,-0.9798609,-10.029516,0.09332009,10064338440,0.0036651916,-0.0061086523,0.002443461,10064338440,52.617188
10064347530,-0.9762716,-10.033105,0.083748795,10064347530,0.0036651916,-0.004276057,0.0012217305,10064347530,52.617188
10064356616,-0.9774681,-10.031909,0.09212367,10064356616,0.004886922,-0.004886922,0.0018325958,10064356616,52.628906
10064365712,-0.98943216,-10.030712,0.08015956,10064365712,0.004886922,-0.004886922,0.0012217305,10064365712,52.628906
10064374780,-0.9798609,-10.040284,0.09930214,10064374780,0.004886922,-0.004276057,0.0012217305,10064374780,52.60547
10064383862,-0.97507524,-10.040284,0.083748795,10064383862,0.004886922,-0.004886922,0.0012217305,10064383862,52.60547
10064392961,-0.9822537,-10.031909,0.09092726,10064392961,0.004886922,-0.004276057,0.0012217305,10064392961,52.601562
10064402040,-0.96430755,-10.023534,0.09212367,10064402040,0.004276057,-0.004276057,0.00061086525,10064402040,52.601562
10064411132,-0.98943216,-10.033105,0.0849452,10064411132,0.004276057,-0.004276057,0.00061086525,10064411132,52.617188
10064420267,-0.9798609,-10.034302,0.096909314,10064420267,0.004276057,-0.004886922,0.00061086525,10064420267,52.617188
10064429303,-0.9822537,-10.036695,0.09332009,10064429303,0.004886922,-0.004276057,0.00061086525,10064429303,52.617188
10064438385,-0.9798609,-10.033105,0.10049855,10064438385,0.0036651916,-0.004276057,0.00061086525,10064438385,52.617188
10064447468,-0.9738788,-10.042677,0.09092726,10064447468,0.005497787,-0.0030543262,0.0012217305,10064447468,52.609375
10064456554,-0.97866446,-10.039087,0.10289137,10064456554,0.005497787,-0.0030543262,0.00061086525,10064456554,52.609375
10064465631,-0.9762716,-10.04148,0.09212367,10064465631,0.004886922,-0.0036651916,0.0018325958,10064465631,52.601562
10064474703,-0.9810573,-10.031909,0.09810573,10064474703,0.004886922,-0.0030543262,0.0018325958,10064474703,52.601562
10064483787,-0.97866446,-10.040284,0.104087785,10064483787,0.004886922,-0.0030543262,0.0012217305,10064483787,52.63672
10064492869,-0.97866446,-10.037891,0.10887343,10064492869,0.004886922,-0.0036651916,0.0012217305,10064492869,52.63672
10064501962,-0.9834501,-10.042677,0.11006984,10064501962,0.0036651916,-0.004276057,0.0012217305,10064501962,52.597656
10064511056,-0.97507524,-10.034302,0.096909314,10064511056,0.0036651916,-0.004276057,0.0018325958,10064511056,52.597656
10064520182,-0.9810573,-10.033105,0.096909314,10064520182,0.004276057,-0.0036651916,0.0018325958,10064520182,52.59375
10064529218,-0.9846465,-10.025927,0.104087785,10064529218,0.004276057,-0.004276057,0.0012217305,10064529218,52.59375
10064538295,-0.9870393,-10.039087,0.1052842,10064538295,0.005497787,-0.004276057,0.0012217305,10064538295,52.59375
10064547379,-0.9810573,-10.043873,0.09451649,10064547379,0.004276057,-0.0036651916,0.00061086525,10064547379,52.59375
10064556461,-0.9846465,-10.035499,0.101694964,10064556461,0.0036651916,-0.004276057,0,10064556461,52.578125
10064565564,-0.9762716,-10.029516,0.09092726,10064565564,0.004276057,-0.004276057,0.0012217305,10064565564,52.578125
10064574628,-0.9846465,-10.04148,0.106480606,10064574628,0.004276057,-0.0036651916,0.00061086525,10064574628,52.609375
10064583719,-0.9810573,-10.029516,0.104087785,10064583719,0.004886922,-0.0036651916,0.0012217305,10064583719,52.609375
10064592798,-0.9738788,-10.035499,0.09332009,10064592798,0.004886922,-0.004276057,0.0012217305,10064592798,52.609375
10064601891,-0.9798609,-10.035499,0.10049855,10064601891,0.004276057,-0.004276057,0.0018325958,10064601891,52.609375
10064610962,-0.9774681,-10.04507,0.10289137,10064610962,0.004886922,-0.0030543262,0.00061086525,10064610962,52.585938
10064620152,-0.9762716,-10.034302,0.1052842,10064620152,0.005497787,-0.0030543262,0.0012217305,10064620152,52.585938
10064629140,-0.991825,-10.028319,0.10289137,10064629140,0.0061086523,-0.004276057,0.0012217305,10064629140,52.585938
10064638228,-0.9810573,-10.031909,0.10289137,10064638228,0.004886922,-0.0036651916,0.0018325958,10064638228,52.585938
10064647308,-0.96789676,-10.037891,0.111266255,10064647308,0.005497787,-0.0036651916,0.0012217305,10064647308,52.625
10064656402,-0.96909314,-10.035499,0.1160519,10064656402,0.004886922,-0.002443461,0.002443461,10064656402,52.625
10064665482,-0.9870393,-10.037891,0.10767702,10064665482,0.004886922,-0.004276057,0.0018325958,10064665482,52.625
10064674552,-0.9810573,-10.031909,0.11724831,10064674552,0.004886922,-0.004276057,0.0012217305,10064674552,52.625
10064683641,-0.97866446,-10.046266,0.11724831,10064683641,0.004276057,-0.004276057,0.0012217305,10064683641,52.628906
10064692726,-0.9822537,-10.030712,0.1160519,10064692726,0.005497787,-0.004276057,0.0012217305,10064692726,52.628906
10064701813,-0.9762716,-10.037891,0.10887343,10064701813,0.005497787,-0.004276057,0.0012217305,10064701813,52.621094
10064710893,-0.9762716,-10.040284,0.10887343,10064710893,0.004886922,-0.004276057,0.0012217305,10064710893,52.621094
10064720097,-0.9774681,-10.042677,0.10289137,10064720097,0.004276057,-0.005497787,0.0018325958,10064720097,52.59375
10064729062,-0.98584294,-10.039087,0.101694964,10064729062,0.0030543262,-0.0061086523,0.0018325958,10064729062,52.59375
10064738144,-0.9774681,-10.037891,0.101694964,10064738144,0.004886922,-0.005497787,0.0012217305,10064738144,52.64453
10064747228,-0.9846465,-10.031909,0.08853444,10064747228,0.004886922,-0.0061086523,0.0012217305,10064747228,52.64453
10064756310,-0.9822537,-10.029516,0.09451649,10064756310,0.005497787,-0.005497787,0,10064756310,52.628906
10064765392,-0.97866446,-10.035499,0.10289137,10064765392,0.004886922,-0.0061086523,0.0012217305,10064765392,52.628906
10064774475,-0.9798609,-10.037891,0.096909314,10064774475,0.004276057,-0.0061086523,0.0018325958,10064774475,52.609375
10064783568,-0.9870393,-10.033105,0.10049855,10064783568,0.004886922,-0.005497787,0.0012217305,10064783568,52.609375
10064792653,-0.9846465,-10.036695,0.0849452,10064792653,0.004886922,-0.005497787,0.00061086525,10064792653,52.59375
10064801736,-0.9798609,-10.036695,0.09332009,10064801736,0.0036651916,-0.005497787,0,10064801736,52.59375
10064810834,-0.97866446,-10.035499,0.10049855,10064810834,0.0036651916,-0.004886922,0.00061086525,10064810834,52.59375
10064819917,-0.9810573,-10.034302,0.09092726,10064819917,0.0036651916,-0.004886922,0.0012217305,10064819917,52.59375
10064828990,-0.9774681,-10.033105,0.09332009,10064828990,0.0036651916,-0.0036651916,0.0012217305,10064828990,52.617188
10064838085,-0.9762716,-10.031909,0.10289137,10064838085,0.004886922,-0.0036651916,0,10064838085,52.617188
10064847162,-0.9762716,-10.039087,0.096909314,10064847162,0.004276057,-0.0036651916,0.0012217305,10064847162,52.617188
10064856253,-0.9774681,-10.035499,0.10049855,10064856253,0.004276057,-0.0036651916,0.0012217305,10064856253,52.617188
10064865331,-0.9762716,-10.033105,0.104087785,10064865331,0.004886922,-0.002443461,0.00061086525,10064865331,52.585938
10064874410,-0.9822537,-10.034302,0.10887343,10064874410,0.004886922,-0.0030543262,0,10064874410,52.585938
10064883496,-0.97507524,-10.035499,0.101694964,10064883496,0.004276057,-0.0036651916,0.0012217305,10064883496,52.601562
10064892573,-0.9834501,-10.042677,0.111266255,10064892573,0.004886922,-0.004276057,0.0018325958,10064892573,52.601562
10064901656,-0.9702896,-10.04507,0.09810573,10064901656,0.005497787,-0.005497787,0.0012217305,10064901656,52.585938
10064910748,-0.9702896,-10.033105,0.10049855,10064910748,0.004886922,-0.0036651916,0.00061086525,10064910748,52.585938
10064919830,-0.97866446,-10.030712,0.10289137,10064919830,0.004276057,-0.004276057,0.00061086525,10064919830,52.625
10064928907,-0.97866446,-10.033105,0.096909314,10064928907,0.0036651916,-0.004276057,0.0012217305,10064928907,52.625
10064938010,-0.97866446,-10.035499,0.09810573,10064938010,0.004276057,-0.0036651916,0.0018325958,10064938010,52.625
10064947093,-0.9846465,-10.030712,0.09332009,10064947093,0.004276057,-0.004276057,0.0012217305,10064947093,52.625
10064956172,-0.9882358,-10.033105,0.086141616,10064956172,0.004886922,-0.004276057,0,10064956172,52.617188
10064965250,-0.9834501,-10.027123,0.09332009,10064965250,0.004886922,-0.0036651916,0.0018325958,10064965250,52.617188
10064974345,-0.9810573,-10.027123,0.09571291,10064974345,0.004276057,-0.0036651916,0.0018325958,10064974345,52.609375
10064983430,-0.9846465,-10.034302,0.083748795,10064983430,0.004886922,-0.0036651916,0.0012217305,10064983430,52.609375
10064992504,-0.9738788,-10.030712,0.078963146,10064992504,0.004276057,-0.004276057,0.0012217305,10064992504,52.59375
10065001592,-0.9738788,-10.031909,0.09571291,10065001592,0.004276057,-0.0036651916,0.0018325958,10065001592,52.59375
10065010676,-0.9846465,-10.035499,0.09451649,10065010676,0.0036651916,-0.0030543262,0.0012217305,10065010676,52.625
10065019758,-0.9798609,-10.029516,0.09332009,10065019758,0.004276057,-0.0030543262,0.0018325958,10065019758,52.625
10065028843,-0.9798609,-10.035499,0.09810573,10065028843,0.005497787,-0.002443461,0.0018325958,10065028843,52.65625
10065037924,-0.9882358,-10.035499,0.10049855,10065037924,0.0061086523,-0.002443461,0.0012217305,10065037924,52.65625
10065047018,-0.9774681,-10.039087,0.10289137,10065047018,0.005497787,-0.0030543262,0.0012217305,10065047018,52.60547
10065056094,-0.9810573,-10.023534,0.11246266,10065056094,0.004276057,-0.002443461,0.0012217305,10065056094,52.60547
10065065166,-0.98943216,-10.036695,0.10289137,10065065166,0.004276057,-0.002443461,0.00061086525,10065065166,52.628906
10065074258,-0.9810573,-10.025927,0.11485548,10065074258,0.0036651916,-0.0036651916,0.00061086525,10065074258,52.628906
10065083341,-0.9834501,-10.029516,0.10767702,10065083341,0.0036651916,-0.0036651916,0.00061086525,10065083341,52.632812
10065092420,-0.9810573,-10.030712,0.11246266,10065092420,0.004276057,-0.0036651916,0.0012217305,10065092420,52.632812
10065101517,-0.9834501,-10.035499,0.11844472,10065101517,0.005497787,-0.004276057,0.0012217305,10065101517,52.632812
10065110588,-0.98943216,-10.033105,0.1160519,10065110588,0.004886922,-0.005497787,0.0012217305,10065110588,52.632812
10065119670,-0.9810573,-10.035499,0.12323037,10065119670,0.004276057,-0.0061086523,0.0012217305,10065119670,52.60547
10065128776,-0.9822537,-10.030712,0.11006984,10065128776,0.004276057,-0.005497787,0.00061086525,10065128776,52.60547
10065137842,-0.9798609,-10.033105,0.09930214,10065137842,0.004886922,-0.0061086523,0.00061086525,10065137842,52.617188
10065146934,-0.9954142,-10.029516,0.11246266,10065146934,0.005497787,-0.005497787,0.0012217305,10065146934,52.617188
10065156015,-0.9810573,-10.037891,0.096909314,10065156015,0.004886922,-0.005497787,0,10065156015,52.64453
10065165095,-0.98584294,-10.033105,0.10289137,10065165095,0.005497787,-0.005497787,0.00061086525,10065165095,52.64453
10065174179,-0.9870393,-10.034302,0.09571291,10065174179,0.005497787,-0.0061086523,0.0012217305,10065174179,52.58203
10065183270,-0.9822537,-10.039087,0.09092726,10065183270,0.004886922,-0.005497787,0.0018325958,10065183270,52.58203
10065192365,-0.97866446,-10.033105,0.101694964,10065192365,0.004276057,-0.0061086523,0.0012217305,10065192365,52.617188
10065201441,-0.9810573,-10.040284,0.10049855,10065201441,0.004886922,-0.005497787,0.0018325958,10065201441,52.617188
10065210517,-0.9774681,-10.035499,0.09571291,10065210517,0.004276057,-0.005497787,-0.00061086525,10065210517,52.63672
10065219599,-0.9738788,-10.039087,0.09810573,10065219599,0.0030543262,-0.004276057,0.00061086525,10065219599,52.63672
10065228698,-0.9834501,-10.030712,0.09451649,10065228698,0.004886922,-0.004886922,0.00061086525,10065228698,52.652344
10065237786,-0.9738788,-10.030712,0.09810573,10065237786,0.004886922,-0.004886922,0.0012217305,10065237786,52.652344
10065246855,-0.9762716,-10.029516,0.08853444,10065246855,0.004276057,-0.004276057,0.00061086525,10065246855,52.58203
10065255940,-0.97866446,-10.035499,0.10049855,10065255940,0.004276057,-0.004276057,0.00061086525,10065255940,52.58203
10065265019,-0.9834501,-10.027123,0.09571291,10065265019,0.004886922,-0.004276057,0.0012217305,10065265019,52.609375
10065274110,-0.9846465,-10.034302,0.101694964,10065274110,0.005497787,-0.004276057,0.0012217305,10065274110,52.609375
10065283186,-0.9846465,-10.031909,0.106480606,10065283186,0.004276057,-0.004886922,0.0012217305,10065283186,52.617188
10065292278,-0.9738788,-10.028319,0.11246266,10065292278,0.0036651916,-0.004276057,0.0012217305,10065292278,52.617188
10065301368,-0.9822537,-10.037891,0.104087785,10065301368,0.004276057,-0.004886922,0.0018325958,10065301368,52.625
10065310460,-0.97507524,-10.036695,0.09571291,10065310460,0.004886922,-0.005497787,0.0012217305,10065310460,52.625
10065319542,-0.9726824,-10.037891,0.09332009,10065319542,0.0036651916,-0.004886922,0.0012217305,10065319542,52.625
10065328613,-0.9810573,-10.035499,0.09810573,10065328613,0.004886922,-0.005497787,0.0012217305,10065328613,52.625
10065337687,-0.9810573,-10.029516,0.09571291,10065337687,0.0036651916,-0.0061086523,0.0018325958,10065337687,52.570312
10065346790,-0.97507524,-10.029516,0.09332009,10065346790,0.004276057,-0.004886922,0.0018325958,10065346790,52.570312
10065355870,-0.97866446,-10.031909,0.096909314,10065355870,0.004276057,-0.004276057,0.0012217305,10065355870,52.65625
10065364954,-0.9906286,-10.040284,0.09212367,10065364954,0.004276057,-0.004886922,0.0012217305,10065364954,52.65625
10065374040,-0.97866446,-10.034302,0.0849452,10065374040,0.0036651916,-0.004276057,0.00061086525,10065374040,52.621094
10065383121,-0.97866446,-10.042677,0.09451649,10065383121,0.004276057,-0.004886922,0.0018325958,10065383121,52.621094
10065392201,-0.9810573,-10.031909,0.09810573,10065392201,0.004276057,-0.004886922,0.0012217305,10065392201,52.63672
10065401288,-0.9774681,-10.028319,0.08015956,10065401288,0.004886922,-0.004276057,0.0012217305,10065401288,52.63672
10065410385,-0.9738788,-10.034302,0.096909314,10065410385,0.004886922,-0.0030543262,0.00061086525,10065410385,52.628906
10065419467,-0.9726824,-10.037891,0.09451649,10065419467,0.004886922,-0.0030543262,0.00061086525,10065419467,52.628906
10065428541,-0.9762716,-10.030712,0.09092726,10065428541,0.004276057,-0.0036651916,0.0012217305,10065428541,52.625
10065437632,-0.9738788,-10.037891,0.09930214,10065437632,0.0036651916,-0.002443461,0.0012217305,10065437632,52.625
10065446710,-0.9738788,-10.034302,0.09092726,10065446710,0.004276057,-0.002443461,0.0012217305,10065446710,52.628906
10065455791,-0.9738788,-10.035499,0.10049855,10065455791,0.004886922,-0.002443461,0.0012217305,10065455791,52.628906
10065464877,-0.9870393,-10.04148,0.101694964,10065464877,0.004886922,-0.002443461,0.002443461,10065464877,52.628906
10065473950,-0.9906286,-10.036695,0.11006984,10065473950,0.004276057,-0.0030543262,0.0012217305,10065473950,52.628906
10065483049,-0.98584294,-10.035499,0.1052842,10065483049,0.0030543262,-0.0036651916,0.0012217305,10065483049,52.59375
10065492133,-0.9810573,-10.035499,0.11006984,10065492133,0.0030543262,-0.0030543262,0.0012217305,10065492133,52.59375
10065501209,-0.9834501,-10.023534,0.11365908,10065501209,0.004886922,-0.0030543262,0.00061086525,10065501209,52.65625
10065510368,-0.9846465,-10.030712,0.11365908,10065510368,0.0061086523,-0.004276057,0.0012217305,10065510368,52.65625
10065519380,-0.9870393,-10.036695,0.1052842,10065519380,0.0036651916,-0.005497787,0.00061086525,10065519380,52.632812
10065528458,-0.9774681,-10.030712,0.10887343,10065528458,0.0036651916,-0.004276057,0.00061086525,10065528458,52.632812
10065537561,-0.9882358,-10.035499,0.11246266,10065537561,0.005497787,-0.004886922,0.0012217305,10065537561,52.597656
10065546639,-0.9810573,-10.033105,0.09930214,10065546639,0.004886922,-0.004276057,0.0018325958,10065546639,52.597656
10065555721,-0.9834501,-10.033105,0.106480606,10065555721,0.004886922,-0.004276057,0.0012217305,10065555721,52.609375
10065564799,-0.98584294,-10.040284,0.11246266,10065564799,0.004276057,-0.0036651916,0.00061086525,10065564799,52.609375
10065573892,-0.9870393,-10.040284,0.11246266,10065573892,0.004276057,-0.004276057,0.0012217305,10065573892,52.617188
10065582979,-0.9834501,-10.028319,0.10049855,10065582979,0.004886922,-0.004886922,0.0018325958,10065582979,52.617188
10065592065,-0.98584294,-10.039087,0.101694964,10065592065,0.0036651916,-0.0061086523,0.0012217305,10065592065,52.63672
10065601150,-0.9882358,-10.027123,0.09332009,10065601150,0.0036651916,-0.004886922,0.00061086525,10065601150,52.63672
10065610211,-0.9702896,-10.030712,0.08733802,10065610211,0.0061086523,-0.004886922,0.0012217305,10065610211,52.621094
10065619293,-0.97507524,-10.021141,0.10767702,10065619293,0.004276057,-0.004276057,0.0012217305,10065619293,52.621094
10065628391,-0.971486,-10.028319,0.106480606,10065628391,0.004276057,-0.004276057,0.0012217305,10065628391,52.601562
10065637470,-0.9822537,-10.040284,0.10289137,10065637470,0.004276057,-0.004886922,0.00061086525,10065637470,52.601562
10065646571,-0.9798609,-10.037891,0.09571291,10065646571,0.004886922,-0.004276057,0.0012217305,10065646571,52.65625
10065655652,-0.9870393,-10.031909,0.096909314,10065655652,0.004886922,-0.004276057,0.0018325958,10065655652,52.65625
10065664728,-0.97866446,-10.034302,0.111266255,10065664728,0.004276057,-0.004276057,0.0012217305,10065664728,52.621094
10065673802,-0.9882358,-10.039087,0.101694964,10065673802,0.004276057,-0.004886922,0.0018325958,10065673802,52.621094
10065682905,-0.98943216,-10.036695,0.101694964,10065682905,0.0036651916,-0.004276057,0.00061086525,10065682905,52.59375
10065691986,-0.9882358,-10.025927,0.1052842,10065691986,0.004276057,-0.004886922,0.00061086525,10065691986,52.59375
10065701076,-0.9822537,-10.037891,0.106480606,10065701076,0.004886922,-0.005497787,0.0012217305,10065701076,52.609375
10065710258,-0.97866446,-10.030712,0.1052842,10065710258,0.004276057,-0.004886922,0.00061086525,10065710258,52.609375
10065719223,-0.9798609,-10.037891,0.10049855,10065719223,0.004886922,-0.005497787,0,10065719223,52.578125
10065728309,-0.9738788,-10.028319,0.10289137,10065728309,0.004886922,-0.005497787,0.00061086525,10065728309,52.578125
10065737401,-0.98584294,-10.039087,0.11006984,10065737401,0.0061086523,-0.0061086523,0.00061086525,10065737401,52.617188
10065746474,-0.971486,-10.030712,0.10049855,10065746474,0.004886922,-0.005497787,0.00061086525,10065746474,52.617188
10065755572,-0.9762716,-10.027123,0.10049855,10065755572,0.004276057,-0.005497787,0.00061086525,10065755572,52.628906
10065764658,-0.9870393,-10.031909,0.09810573,10065764658,0.004886922,-0.005497787,0.0012217305,10065764658,52.628906
10065773733,-0.98584294,-10.039087,0.09451649,10065773733,0.005497787,-0.004276057,0.0012217305,10065773733,52.61328
10065782819,-0.9846465,-10.029516,0.09810573,10065782819,0.005497787,-0.005497787,0.0018325958,10065782819,52.61328
10065791909,-0.9846465,-10.036695,0.08733802,10065791909,0.005497787,-0.005497787,0.0012217305,10065791909,52.625
10065800993,-0.9738788,-10.033105,0.09451649,10065800993,0.0036651916,-0.0061086523,0.0012217305,10065800993,52.625
10065810180,-0.9762716,-10.028319,0.086141616,10065810180,0.004276057,-0.004886922,0.0018325958,10065810180,52.601562
10065819145,-0.9738788,-10.035499,0.09212367,10065819145,0.004886922,-0.004276057,0.00061086525,10065819145,52.601562
10065828231,-0.9738788,-10.034302,0.09092726,10065828231,0.004886922,-0.0036651916,0.00061086525,10065828231,52.609375
10065837317,-0.9834501,-10.028319,0.08733802,10065837317,0.004276057,-0.0036651916,0.002443461,10065837317,52.609375
10065846417,-0.9810573,-10.021141,0.08015956,10065846417,0.004886922,-0.002443461,0.0018325958,10065846417,52.59375
10065855503,-0.9774681,-10.023534,0.0849452,10065855503,0.004886922,-0.004276057,0.0012217305,10065855503,52.59375
10065864584,-0.9822537,-10.029516,0.09810573,10065864584,0.0030543262,-0.0036651916,0.0012217305,10065864584,52.609375
10065873660,-0.97507524,-10.027123,0.1052842,10065873660,0.004276057,-0.0036651916,0,10065873660,52.609375
10065882754,-0.9762716,-10.035499,0.096909314,10065882754,0.005497787,-0.002443461,0.00061086525,10065882754,52.59375
10065891838,-0.9822537,-10.042677,0.096909314,10065891838,0.004886922,-0.0036651916,0.0012217305,10065891838,52.59375
10065900919,-0.96430755,-10.029516,0.1052842,10065900919,0.004886922,-0.002443461,0.0012217305,10065900919,52.59375
10065910001,-0.9738788,-10.030712,0.10049855,10065910001,0.005497787,-0.0036651916,0.0012217305,10065910001,52.59375
10065919080,-0.9846465,-10.040284,0.09930214,10065919080,0.004886922,-0.002443461,0.0012217305,10065919080,52.59375
10065928160,-0.96550393,-10.031909,0.096909314,10065928160,0.004886922,-0.0036651916,0.00061086525,10065928160,52.59375
10065937239,-0.9762716,-10.035499,0.1052842,10065937239,0.005497787,-0.004886922,0.0012217305,10065937239,52.570312
10065946326,-0.97866446,-10.033105,0.09332009,10065946326,0.005497787,-0.0036651916,0.0018325958,10065946326,52.570312
10065955411,-0.9774681,-10.033105,0.10887343,10065955411,0.005497787,-0.004886922,0.00061086525,10065955411,52.628906
10065964499,-0.97866446,-10.034302,0.09332009,10065964499,0.004886922,-0.004276057,0.0012217305,10065964499,52.628906
10065973596,-0.9870393,-10.022338,0.09332009,10065973596,0.004276057,-0.0030543262,0.0012217305,10065973596,52.621094
10065982682,-0.9798609,-10.027123,0.10049855,10065982682,0.002443461,-0.004276057,0.00061086525,10065982682,52.621094
10065991744,-0.971486,-10.027123,0.10767702,10065991744,0.0036651916,-0.004276057,0,10065991744,52.617188
10066000839,-0.97866446,-10.031909,0.1052842,10066000839,0.004886922,-0.004276057,0.002443461,10066000839,52.617188
10066009921,-0.9834501,-10.036695,0.09571291,10066009921,0.005497787,-0.004276057,0.0012217305,10066009921,52.578125
10066019008,-0.9774681,-10.035499,0.08973085,10066019008,0.004886922,-0.004276057,0.0018325958,10066019008,52.578125
10066028088,-0.9738788,-10.033105,0.08255238,10066028088,0.004886922,-0.002443461,0.0012217305,10066028088,52.59375
10066037182,-0.9762716,-10.031909,0.1052842,10066037182,0.004886922,-0.0030543262,0.0018325958,10066037182,52.59375
10066046255,-0.9762716,-10.034302,0.11246266,10066046255,0.0036651916,-0.0030543262,0.0012217305,10066046255,52.609375
10066055336,-0.9726824,-10.028319,0.10887343,10066055336,0.004886922,-0.0030543262,0.0012217305,10066055336,52.609375
10066064424,-0.9738788,-10.035499,0.10289137,10066064424,0.004276057,-0.0030543262,0.0012217305,10066064424,52.617188
10066073517,-0.98584294,-10.035499,0.10049855,10066073517,0.004276057,-0.0036651916,0.0012217305,10066073517,52.617188
10066082599,-0.98584294,-10.037891,0.10887343,10066082599,0.004886922,-0.004276057,0.0012217305,10066082599,52.625
10066091687,-0.9870393,-10.029516,0.11365908,10066091687,0.0036651916,-0.0036651916,0.0012217305,10066091687,52.625
10066100756,-0.9798609,-10.033105,0.11485548,10066100756,0.004276057,-0.004886922,0.0012217305,10066100756,52.617188
10066109838,-0.9762716,-10.037891,0.101694964,10066109838,0.004276057,-0.004886922,0.00061086525,10066109838,52.617188
10066118938,-0.9846465,-10.043873,0.1052842,10066118938,0.0036651916,-0.004276057,0.0012217305,10066118938,52.609375
10066128015,-0.9798609,-10.025927,0.10887343,10066128015,0.0036651916,-0.004276057,0.00061086525,10066128015,52.609375
10066137093,-0.97866446,-10.029516,0.09930214,10066137093,0.004886922,-0.004276057,0.0012217305,10066137093,52.617188
10066146189,-0.9738788,-10.034302,0.09332009,10066146189,0.005497787,-0.005497787,0.00061086525,10066146189,52.617188
10066155274,-0.9810573,-10.035499,0.10049855,10066155274,0.004276057,-0.005497787,0.0012217305,10066155274,52.570312
10066164355,-0.9774681,-10.035499,0.09451649,10066164355,0.004276057,-0.005497787,0.00061086525,10066164355,52.570312
10066173449,-0.96909314,-10.031909,0.09332009,10066173449,0.004276057,-0.005497787,0.00061086525,10066173449,52.625
10066182512,-0.9834501,-10.035499,0.096909314,10066182512,0.004886922,-0.0061086523,0.002443461,10066182512,52.625
10066191600,-0.97866446,-10.031909,0.096909314,10066191600,0.005497787,-0.005497787,0.0018325958,10066191600,52.617188
10066200685,-0.9774681,-10.034302,0.09451649,10066200685,0.005497787,-0.0061086523,0.00061086525,10066200685,52.617188
10066209767,-0.9738788,-10.035499,0.09810573,10066209767,0.0036651916,-0.004886922,0.0012217305,10066209767,52.601562
10066218859,-0.9726824,-10.025927,0.09810573,10066218859,0.004276057,-0.005497787,0.0012217305,10066218859,52.601562
10066227946,-0.97866446,-10.031909,0.07776674,10066227946,0.0036651916,-0.005497787,0.0018325958,10066227946,52.625
10066237026,-0.96909314,-10.031909,0.08733802,10066237026,0.004276057,-0.004276057,0.0012217305,10066237026,52.625
10066246107,-0.96909314,-10.039087,0.08973085,10066246107,0.005497787,-0.004886922,0.0012217305,10066246107,52.617188
10066255191,-0.9726824,-10.025927,0.09571291,10066255191,0.004276057,-0.0030543262,0.0012217305,10066255191,52.617188
10066264280,-0.9798609,-10.043873,0.096909314,10066264280,0.004276057,-0.004276057,0,10066264280,52.585938
10066273351,-0.9846465,-10.035499,0.08015956,10066273351,0.004886922,-0.004276057,0.00061086525,10066273351,52.585938
10066282441,-0.9798609,-10.037891,0.09571291,10066282441,0.004886922,-0.0036651916,0.0018325958,10066282441,52.609375
10066291528,-0.9798609,-10.037891,0.09810573,10066291528,0.004886922,-0.004276057,0.0012217305,10066291528,52.609375
10066300627,-0.9774681,-10.031909,0.1052842,10066300627,0.004276057,-0.0036651916,0.00061086525,10066300627,52.609375
10066309709,-0.9726824,-10.031909,0.096909314,10066309709,0.004276057,-0.0030543262,0,10066309709,52.609375
10066318774,-0.9834501,-10.030712,0.09092726,10066318774,0.004886922,-0.002443461,0.0012217305,10066318774,52.609375
10066327858,-0.9762716,-10.033105,0.104087785,10066327858,0.004886922,-0.0036651916,0.0018325958,10066327858,52.609375
10066336949,-0.97866446,-10.028319,0.101694964,10066336949,0.0030543262,-0.004886922,0.0012217305,10066336949,52.601562
10066346038,-0.9870393,-10.029516,0.09332009,10066346038,0.004886922,-0.004276057,0.00061086525,10066346038,52.601562
10066355107,-0.99302137,-10.035499,0.10887343,10066355107,0.004276057,-0.0030543262,0.00061086525,10066355107,52.601562
10066364209,-0.9834501,-10.027123,0.09332009,10066364209,0.004886922,-0.0036651916,0.0012217305,10066364209,52.601562
10066373290,-0.9762716,-10.031909,0.09930214,10066373290,0.004276057,-0.004276057,0.0012217305,10066373290,52.585938
10066382376,-0.9798609,-10.022338,0.09332009,10066382376,0.004276057,-0.004886922,0.0012217305,10066382376,52.585938
10066391465,-0.9846465,-10.028319,0.11006984,10066391465,0.004886922,-0.004276057,0.00061086525,10066391465,52.59375
10066400536,-0.9810573,-10.034302,0.09930214,10066400536,0.004276057,-0.002443461,0.00061086525,10066400536,52.59375
10066409618,-0.9822537,-10.025927,0.09212367,10066409618,0.005497787,-0.002443461,0.0012217305,10066409618,52.601562
10066418711,-0.97507524,-10.036695,0.104087785,10066418711,0.0030543262,-0.0036651916,0.0012217305,10066418711,52.601562
10066427786,-0.97507524,-10.028319,0.09810573,10066427786,0.004886922,-0.0030543262,0.0018325958,10066427786,52.59375
10066436877,-0.9798609,-10.035499,0.09810573,10066436877,0.004886922,-0.0036651916,0.0012217305,10066436877,52.59375
10066445948,-0.9906286,-10.036695,0.10767702,10066445948,0.005497787,-0.004276057,0.0012217305,10066445948,52.617188
10066455049,-0.9726824,-10.040284,0.10767702,10066455049,0.004276057,-0.004276057,0.0012217305,10066455049,52.617188
10066464135,-0.98584294,-10.033105,0.11006984,10066464135,0.004276057,-0.004886922,0,10066464135,52.625
10066473210,-0.9798609,-10.037891,0.11006984,10066473210,0.005497787,-0.004276057,0.00061086525,10066473210,52.625
10066482304,-0.9810573,-10.04507,0.11365908,10066482304,0.004886922,-0.0030543262,0.0018325958,10066482304,52.65625
10066491388,-0.9810573,-10.04148,0.10289137,10066491388,0.004886922,-0.0030543262,0.00061086525,10066491388,52.65625
10066500470,-0.9762716,-10.036695,0.104087785,10066500470,0.005497787,-0.0036651916,0.00061086525,10066500470,52.61328
10066509553,-0.9798609,-10.035499,0.11485548,10066509553,0.005497787,-0.0030543262,0.0012217305,10066509553,52.61328
10066518620,-0.9846465,-10.039087,0.11246266,10066518620,0.004886922,-0.0036651916,0.0012217305,10066518620,52.609375
10066527722,-0.98584294,-10.035499,0.10767702,10066527722,0.004886922,-0.004276057,0.0012217305,10066527722,52.609375
10066536792,-0.98584294,-10.036695,0.11365908,10066536792,0.004886922,-0.004886922,0.0018325958,10066536792,52.625
10066545890,-0.9870393,-10.037891,0.106480606,10066545890,0.004276057,-0.005497787,0.00061086525,10066545890,52.625
10066554960,-0.9738788,-10.036695,0.11724831,10066554960,0.004276057,-0.005497787,0.0012217305,10066554960,52.609375
10066564056,-0.9834501,-10.028319,0.09930214,10066564056,0.005497787,-0.004886922,0.0012217305,10066564056,52.609375
10066573145,-0.9834501,-10.034302,0.1052842,10066573145,0.004276057,-0.004886922,0.0018325958,10066573145,52.617188
10066582229,-0.9834501,-10.037891,0.10289137,10066582229,0.004886922,-0.005497787,0.0012217305,10066582229,52.617188
10066591293,-0.96789676,-10.037891,0.10767702,10066591293,0.004276057,-0.0061086523,0,10066591293,52.625
10066600400,-0.9798609,-10.040284,0.10767702,10066600400,0.005497787,-0.005497787,0.00061086525,10066600400,52.625
10066609483,-0.9822537,-10.030712,0.09571291,10066609483,0.004276057,-0.0061086523,0.0012217305,10066609483,52.679688
10066618562,-0.9774681,-10.035499,0.09930214,10066618562,0.0030543262,-0.0061086523,0.0012217305,10066618562,52.679688
10066627638,-0.971486,-10.036695,0.08973085,10066627638,0.004886922,-0.004886922,0.00061086525,10066627638,52.628906
10066636728,-0.97866446,-10.028319,0.101694964,10066636728,0.004886922,-0.0036651916,0.0012217305,10066636728,52.628906
10066645812,-0.97866446,-10.031909,0.09810573,10066645812,0.004276057,-0.004276057,0.0012217305,10066645812,52.609375
10066654887,-0.97507524,-10.033105,0.09571291,10066654887,0.004886922,-0.005497787,0.0018325958,10066654887,52.609375
10066663968,-0.9882358,-10.025927,0.09451649,10066663968,0.004886922,-0.004276057,0.0012217305,10066663968,52.617188
10066673071,-0.97507524,-10.029516,0.09332009,10066673071,0.004886922,-0.005497787,0.0018325958,10066673071,52.617188
10066682150,-0.9726824,-10.036695,0.08853444,10066682150,0.004276057,-0.004886922,0.0018325958,10066682150,52.63672
10066691236,-0.97507524,-10.028319,0.08853444,10066691236,0.004886922,-0.004276057,0.0012217305,10066691236,52.63672
10066700307,-0.97507524,-10.028319,0.08973085,10066700307,0.004276057,-0.005497787,0,10066700307,52.632812
10066709389,-0.97866446,-10.022338,0.096909314,10066709389,0.004886922,-0.004886922,0.00061086525,10066709389,52.632812
10066718478,-0.9798609,-10.042677,0.09092726,10066718478,0.004276057,-0.0036651916,0.00061086525,10066718478,52.628906
10066727555,-0.9834501,-10.036695,0.09212367,10066727555,0.004276057,-0.0036651916,0.0012217305,10066727555,52.628906
10066736645,-0.96909314,-10.024731,0.09212367,10066736645,0.004886922,-0.004886922,0.0018325958,10066736645,52.63672
10066745742,-0.9798609,-10.029516,0.08853444,10066745742,0.004276057,-0.004276057,0,10066745742,52.63672
10066754815,-0.98584294,-10.035499,0.1052842,10066754815,0.004886922,-0.004886922,0.00061086525,10066754815,52.61328
10066763900,-0.971486,-10.040284,0.096909314,10066763900,0.004886922,-0.004886922,0.0012217305,10066763900,52.61328
10066772993,-0.97866446,-10.033105,0.09930214,10066772993,0.004276057,-0.004276057,0.00061086525,10066772993,52.601562
10066782067,-0.97866446,-10.042677,0.10289137,10066782067,0.004276057,-0.004276057,0.00061086525,10066782067,52.601562
10066791148,-0.9726824,-10.035499,0.10049855,10066791148,0.004276057,-0.0036651916,0.0012217305,10066791148,52.609375
10066800236,-0.9834501,-10.031909,0.09332009,10066800236,0.004276057,-0.0036651916,0.00061086525,10066800236,52.609375
10066809318,-0.97866446,-10.033105,0.09451649,10066809318,0.004276057,-0.004276057,0.0012217305,10066809318,52.63672
10066818411,-0.9798609,-10.035499,0.09930214,10066818411,0.004886922,-0.004276057,0.0030543262,10066818411,52.63672
10066827482,-0.9774681,-10.034302,0.09571291,10066827482,0.005497787,-0.0030543262,0.0012217305,10066827482,52.632812
10066836584,-0.9738788,-10.039087,0.096909314,10066836584,0.004886922,-0.0030543262,0.0012217305,10066836584,52.632812
10066845668,-0.97507524,-10.034302,0.09571291,10066845668,0.004886922,-0.002443461,0.0018325958,10066845668,52.61328
10066854738,-0.9738788,-10.033105,0.096909314,10066854738,0.004276057,-0.0036651916,0.00061086525,10066854738,52.61328
10066863836,-0.97866446,-10.046266,0.09451649,10066863836,0.0036651916,-0.0036651916,0.00061086525,10066863836,52.59375
10066872908,-0.9846465,-10.034302,0.101694964,10066872908,0.004276057,-0.0036651916,0,10066872908,52.59375
10066881986,-0.9810573,-10.033105,0.11485548,10066881986,0.004886922,-0.004276057,0.00061086525,10066881986,52.625
10066891071,-0.98943216,-10.031909,0.10767702,10066891071,0.0036651916,-0.0036651916,0.0012217305,10066891071,52.625
10066900236,-0.9870393,-10.033105,0.10887343,10066900236,0.004886922,-0.0030543262,0.0012217305,10066900236,52.609375
10066909248,-0.98584294,-10.033105,0.10049855,10066909248,0.004276057,-0.0030543262,0.0012217305,10066909248,52.609375
10066918331,-0.9822537,-10.033105,0.10767702,10066918331,0.004886922,-0.0030543262,0.0012217305,10066918331,52.63672
10066927409,-0.98584294,-10.028319,0.10887343,10066927409,0.004886922,-0.0030543262,0.00061086525,10066927409,52.63672
10066936493,-0.98584294,-10.036695,0.1052842,10066936493,0.004886922,-0.004276057,0.0018325958,10066936493,52.632812
10066945575,-0.9846465,-10.036695,0.11006984,10066945575,0.004276057,-0.004276057,0.0018325958,10066945575,52.632812
10066954661,-0.9882358,-10.030712,0.09930214,10066954661,0.004276057,-0.004276057,0.0012217305,10066954661,52.621094
10066963752,-0.9798609,-10.040284,0.101694964,10066963752,0.004886922,-0.005497787,0.00061086525,10066963752,52.621094
10066972829,-0.9834501,-10.031909,0.10289137,10066972829,0.0036651916,-0.004276057,0.0012217305,10066972829,52.63672
10066981909,-0.9762716,-10.033105,0.10289137,10066981909,0.0030543262,-0.004886922,0.0018325958,10066981909,52.63672
10066990994,-0.9834501,-10.034302,0.1052842,10066990994,0.004276057,-0.0061086523,0.00061086525,10066990994,52.632812
10067000224,-0.9762716,-10.030712,0.104087785,10067000224,0.005497787,-0.005497787,0.0012217305,10067000224,52.632812
10067009165,-0.9738788,-10.028319,0.10049855,10067009165,0.004886922,-0.005497787,0.0012217305,10067009165,52.621094
10067018248,-0.9834501,-10.04148,0.09212367,10067018248,0.0036651916,-0.004886922,0.0018325958,10067018248,52.621094
10067027340,-0.9738788,-10.034302,0.101694964,10067027340,0.004886922,-0.005497787,0.0012217305,10067027340,52.63672
10067036415,-0.9846465,-10.034302,0.10289137,10067036415,0.005497787,-0.004886922,0.00061086525,10067036415,52.63672
10067045517,-0.97507524,-10.035499,0.1052842,10067045517,0.005497787,-0.004276057,0.0012217305,10067045517,52.58203
10067054597,-0.9738788,-10.030712,0.106480606,10067054597,0.004886922,-0.004276057,0.0012217305,10067054597,52.58203
10067063685,-0.971486,-10.024731,0.09451649,10067063685,0.0036651916,-0.004886922,0.0012217305,10067063685,52.628906
10067072767,-0.9774681,-10.029516,0.09571291,10067072767,0.004886922,-0.005497787,0.0012217305,10067072767,52.628906
10067081856,-0.9726824,-10.027123,0.09810573,10067081856,0.005497787,-0.004886922,0.0012217305,10067081856,52.632812
10067090925,-0.9762716,-10.039087,0.09332009,10067090925,0.004886922,-0.004886922,0.0012217305,10067090925,52.632812
10067100104,-0.9870393,-10.035499,0.101694964,10067100104,0.005497787,-0.005497787,0.00061086525,10067100104,52.628906
10067109092,-0.9738788,-10.039087,0.09451649,10067109092,0.004886922,-0.004276057,0.00061086525,10067109092,52.628906
10067118176,-0.97507524,-10.04148,0.10049855,10067118176,0.0036651916,-0.004886922,0.00061086525,10067118176,52.585938
10067127271,-0.96909314,-10.025927,0.09930214,10067127271,0.004276057,-0.004886922,0,10067127271,52.585938
10067136338,-0.9726824,-10.033105,0.10887343,10067136338,0.004886922,-0.004886922,0.0012217305,10067136338,52.609375
10067145432,-0.9774681,-10.027123,0.09451649,10067145432,0.004276057,-0.004276057,0.00061086525,10067145432,52.609375
10067154527,-0.9810573,-10.033105,0.09332009,10067154527,0.004886922,-0.004886922,0.00061086525,10067154527,52.625
10067163590,-0.9810573,-10.039087,0.09092726,10067163590,0.005497787,-0.004886922,0.002443461,10067163590,52.625
10067172682,-0.9726824,-10.04148,0.08973085,10067172682,0.004886922,-0.004276057,0.0018325958,10067172682,52.628906
10067181762,-0.9882358,-10.035499,0.09571291,10067181762,0.0061086523,-0.004276057,0.0018325958,10067181762,52.628906
10067190852,-0.98584294,-10.025927,0.09930214,10067190852,0.005497787,-0.005497787,0.0012217305,10067190852,52.632812
10067200114,-0.9798609,-10.035499,0.086141616,10067200114,0.004276057,-0.004886922,0.0018325958,10067200114,52.632812
10067209031,-0.9762716,-10.047462,0.09571291,10067209031,0.004276057,-0.004886922,0.0018325958,10067209031,52.628906
10067218095,-0.9726824,-10.030712,0.10289137,10067218095,0.0036651916,-0.005497787,0.0012217305,10067218095,52.628906
10067227191,-0.9834501,-10.036695,0.0849452,10067227191,0.004276057,-0.004276057,0.00061086525,10067227191,52.65625
10067236281,-0.9846465,-10.028319,0.09930214,10067236281,0.005497787,-0.004276057,0.00061086525,10067236281,52.65625
10067245368,-0.96789676,-10.036695,0.09451649,10067245368,0.004276057,-0.004276057,0.0012217305,10067245368,52.640625
10067254438,-0.9762716,-10.035499,0.09571291,10067254438,0.004886922,-0.004276057,0.00061086525,10067254438,52.640625
10067263530,-0.9738788,-10.031909,0.09571291,10067263530,0.004276057,-0.0036651916,0.0012217305,10067263530,52.660156
10067272600,-0.9870393,-10.037891,0.09332009,10067272600,0.004886922,-0.0036651916,0.0012217305,10067272600,52.660156
10067281700,-0.9870393,-10.036695,0.10049855,10067281700,0.004276057,-0.0030543262,0.0012217305,10067281700,52.66797
10067290788,-0.9822537,-10.031909,0.09930214,10067290788,0.004886922,-0.0036651916,0.0012217305,10067290788,52.66797
10067299870,-0.9762716,-10.034302,0.09810573,10067299870,0.004276057,-0.0036651916,0.0012217305,10067299870,52.60547
10067308937,-0.9738788,-10.030712,0.09810573,10067308937,0.004886922,-0.0030543262,0.0012217305,10067308937,52.60547
10067318034,-0.98584294,-10.035499,0.096909314,10067318034,0.004276057,-0.0036651916,0.0012217305,10067318034,52.63672
10067327124,-0.9810573,-10.037891,0.101694964,10067327124,0.004276057,-0.0036651916,0.0012217305,10067327124,52.63672
10067336198,-0.9798609,-10.028319,0.10887343,10067336198,0.004276057,-0.0030543262,0.00061086525,10067336198,52.621094
10067345282,-0.97507524,-10.025927,0.09810573,10067345282,0.0036651916,-0.0030543262,0.0012217305,10067345282,52.621094
10067354369,-0.9798609,-10.021141,0.1052842,10067354369,0.004886922,-0.0036651916,0.0012217305,10067354369,52.671875
10067363440,-0.9762716,-10.031909,0.104087785,10067363440,0.005497787,-0.002443461,0.00061086525,10067363440,52.671875
10067372525,-0.9798609,-10.033105,0.106480606,10067372525,0.005497787,-0.004276057,0.00061086525,10067372525,52.640625
10067381630,-0.9738788,-10.030712,0.10887343,10067381630,0.004276057,-0.004276057,0.0012217305,10067381630,52.640625
10067390702,-0.9726824,-10.040284,0.106480606,10067390702,0.004276057,-0.004276057,0.0012217305,10067390702,52.60547
10067399785,-0.9822537,-10.033105,0.09571291,10067399785,0.0030543262,-0.0030543262,0.0012217305,10067399785,52.60547
10067408859,-0.9834501,-10.036695,0.096909314,10067408859,0.004276057,-0.002443461,0.00061086525,10067408859,52.628906
10067417965,-0.9702896,-10.034302,0.11246266,10067417965,0.005497787,-0.0036651916,0.0012217305,10067417965,52.628906
10067427029,-0.9882358,-10.033105,0.09571291,10067427029,0.004886922,-0.0036651916,0.0018325958,10067427029,52.628906
10067436118,-0.9846465,-10.036695,0.10767702,10067436118,0.004276057,-0.0036651916,0.002443461,10067436118,52.628906
10067445203,-0.97507524,-10.037891,0.104087785,10067445203,0.004276057,-0.0036651916,0.0018325958,10067445203,52.628906
10067454280,-0.97866446,-10.034302,0.1052842,10067454280,0.004276057,-0.0036651916,0.00061086525,10067454280,52.628906
10067463369,-0.9810573,-10.030712,0.1052842,10067463369,0.004276057,-0.004276057,0.00061086525,10067463369,52.628906
10067472450,-0.971486,-10.030712,0.09810573,10067472450,0.0036651916,-0.004276057,0.0012217305,10067472450,52.628906
10067481538,-0.9726824,-10.034302,0.111266255,10067481538,0.004276057,-0.004276057,0.0012217305,10067481538,52.609375
10067490617,-0.9834501,-10.031909,0.1052842,10067490617,0.004276057,-0.004276057,0.0018325958,10067490617,52.609375
10067499699,-0.9834501,-10.021141,0.101694964,10067499699,0.004276057,-0.004276057,0.002443461,10067499699,52.664062
10067508795,-0.9810573,-10.024731,0.111266255,10067508795,0.005497787,-0.004276057,0.0012217305,10067508795,52.664062
10067517878,-0.97866446,-10.029516,0.10767702,10067517878,0.004886922,-0.004276057,0.0018325958,10067517878,52.628906
10067526959,-0.97866446,-10.033105,0.09451649,10067526959,0.005497787,-0.005497787,0.0012217305,10067526959,52.628906
10067536040,-0.9762716,-10.034302,0.11485548,10067536040,0.004276057,-0.004886922,0.0012217305,10067536040,52.601562
10067545124,-0.9822537,-10.034302,0.09810573,10067545124,0.004276057,-0.004886922,0.0012217305,10067545124,52.601562
10067554221,-0.9870393,-10.035499,0.10887343,10067554221,0.004276057,-0.0061086523,0.00061086525,10067554221,52.554688
10067563293,-0.97866446,-10.033105,0.09571291,10067563293,0.004886922,-0.005497787,0.0012217305,10067563293,52.554688
10067572377,-0.9846465,-10.034302,0.09930214,10067572377,0.004276057,-0.004886922,0.0012217305,10067572377,52.63672
10067581465,-0.9822537,-10.030712,0.10289137,10067581465,0.004886922,-0.005497787,0.00061086525,10067581465,52.63672
10067590624,-0.9846465,-10.024731,0.10289137,10067590624,0.004886922,-0.005497787,0.0018325958,10067590624,52.621094
10067599636,-0.9882358,-10.022338,0.09810573,10067599636,0.005497787,-0.004886922,0.0018325958,10067599636,52.621094
10067608715,-0.9774681,-10.028319,0.09092726,10067608715,0.004276057,-0.004886922,0.0012217305,10067608715,52.628906
10067617811,-0.9822537,-10.033105,0.08973085,10067617811,0.004276057,-0.004886922,0.00061086525,10067617811,52.628906
10067626892,-0.96909314,-10.04148,0.09571291,10067626892,0.0036651916,-0.005497787,0.0012217305,10067626892,52.632812
10067635970,-0.9774681,-10.030712,0.096909314,10067635970,0.004886922,-0.0061086523,0.00061086525,10067635970,52.632812
10067645047,-0.9846465,-10.036695,0.09092726,10067645047,0.004276057,-0.0036651916,0.0018325958,10067645047,52.621094
10067654152,-0.9822537,-10.040284,0.08973085,10067654152,0.005497787,-0.004276057,0.0018325958,10067654152,52.621094
10067663221,-0.98943216,-10.031909,0.09451649,10067663221,0.005497787,-0.004276057,0.0018325958,10067663221,52.625
10067672321,-0.9798609,-10.028319,0.09332009,10067672321,0.004886922,-0.004886922,0.00061086525,10067672321,52.625
10067681401,-0.9798609,-10.024731,0.0849452,10067681401,0.005497787,-0.004886922,0.00061086525,10067681401,52.625
10067690474,-0.9822537,-10.035499,0.09092726,10067690474,0.004276057,-0.0030543262,0.0018325958,10067690474,52.625
10067699556,-0.9762716,-10.030712,0.09212367,10067699556,0.0036651916,-0.004276057,0.0012217305,10067699556,52.585938
10067708639,-0.9846465,-10.034302,0.09451649,10067708639,0.004886922,-0.004886922,0.0012217305,10067708639,52.585938
10067717731,-0.98584294,-10.040284,0.09571291,10067717731,0.005497787,-0.004276057,0.00061086525,10067717731,52.59375
10067726804,-0.9810573,-10.037891,0.096909314,10067726804,0.004276057,-0.004276057,0.0012217305,10067726804,52.59375
10067735888,-0.9810573,-10.035499,0.104087785,10067735888,0.005497787,-0.0030543262,0.00061086525,10067735888,52.63672
10067744972,-0.99302137,-10.030712,0.09810573,10067744972,0.0061086523,-0.0030543262,0.00061086525,10067744972,52.63672
10067754057,-0.97866446,-10.034302,0.096909314,10067754057,0.004886922,-0.0036651916,0.0012217305,10067754057,52.61328
10067763144,-0.97507524,-10.030712,0.10289137,10067763144,0.004886922,-0.0036651916,0.0012217305,10067763144,52.61328
10067772244,-0.971486,-10.027123,0.10289137,10067772244,0.004886922,-0.004886922,0.0012217305,10067772244,52.617188
10067781329,-0.97866446,-10.04507,0.10049855,10067781329,0.004886922,-0.004276057,0.0018325958,10067781329,52.617188
10067790410,-0.9810573,-10.034302,0.09332009,10067790410,0.004276057,-0.004276057,0.00061086525,10067790410,52.628906
10067799493,-0.971486,-10.033105,0.1052842,10067799493,0.0036651916,-0.004276057,0.0018325958,10067799493,52.628906
10067808570,-0.97866446,-10.030712,0.1052842,10067808570,0.004276057,-0.0030543262,0.0018325958,10067808570,52.628906
10067817653,-0.9798609,-10.039087,0.09571291,10067817653,0.004276057,-0.0030543262,0.0018325958,10067817653,52.628906
10067826743,-0.9762716,-10.04148,0.09451649,10067826743,0.005497787,-0.0030543262,0.00061086525,10067826743,52.617188
10067835830,-0.9822537,-10.030712,0.09930214,10067835830,0.004276057,-0.0036651916,0.00061086525,10067835830,52.617188
10067844902,-0.991825,-10.033105,0.10049855,10067844902,0.004276057,-0.004276057,0.0012217305,10067844902,52.628906
10067854000,-0.9762716,-10.034302,0.09930214,10067854000,0.004276057,-0.0036651916,0.0012217305,10067854000,52.628906
10067863073,-0.96430755,-10.035499,0.09810573,10067863073,0.004886922,-0.004886922,0.0012217305,10067863073,52.621094
10067872169,-0.9810573,-10.040284,0.10767702,10067872169,0.004886922,-0.004276057,0.0012217305,10067872169,52.621094
10067881235,-0.9738788,-10.042677,0.104087785,10067881235,0.005497787,-0.0036651916,0.0012217305,10067881235,52.625
10067890384,-0.97866446,-10.031909,0.11246266,10067890384,0.004276057,-0.004276057,0.0012217305,10067890384,52.625
10067899420,-0.97866446,-10.034302,0.1160519,10067899420,0.0036651916,-0.0030543262,0.00061086525,10067899420,52.59375
10067908492,-0.97866446,-10.040284,0.09930214,10067908492,0.0036651916,-0.0036651916,0.0012217305,10067908492,52.59375
10067917566,-0.991825,-10.035499,0.11365908,10067917566,0.004276057,-0.004276057,0.0012217305,10067917566,52.601562
10067926669,-0.9834501,-10.030712,0.10767702,10067926669,0.004886922,-0.004276057,0.00061086525,10067926669,52.601562
10067935754,-0.9810573,-10.037891,0.111266255,10067935754,0.004886922,-0.004276057,0.0012217305,10067935754,52.65625
10067944823,-0.9822537,-10.036695,0.10289137,10067944823,0.004276057,-0.004886922,0.00061086525,10067944823,52.65625
10067953911,-0.9822537,-10.036695,0.1052842,10067953911,0.0036651916,-0.0036651916,0.0018325958,10067953911,52.632812
10067963004,-0.9774681,-10.031909,0.10887343,10067963004,0.004886922,-0.004886922,0.0018325958,10067963004,52.632812
10067972085,-0.98584294,-10.04148,0.10049855,10067972085,0.004276057,-0.004886922,0.00061086525,10067972085,52.61328
10067981170,-0.9834501,-10.033105,0.1052842,10067981170,0.004886922,-0.0036651916,0.00061086525,10067981170,52.61328
10067990340,-0.9822537,-10.034302,0.104087785,10067990340,0.004276057,-0.004276057,0.0012217305,10067990340,52.628906
10067999328,-0.97866446,-10.033105,0.10049855,10067999328,0.004276057,-0.004276057,0.0018325958,10067999328,52.628906
10068008429,-0.9798609,-10.030712,0.101694964,10068008429,0.004886922,-0.005497787,0.0012217305,10068008429,52.660156
10068017492,-0.9798609,-10.037891,0.1052842,10068017492,0.004276057,-0.0061086523,0,10068017492,52.660156
10068026598,-0.9954142,-10.036695,0.09212367,10068026598,0.004276057,-0.004886922,0,10068026598,52.589844
10068035669,-0.9762716,-10.031909,0.104087785,10068035669,0.004276057,-0.004276057,0.00061086525,10068035669,52.589844
10068044757,-0.9774681,-10.031909,0.09571291,10068044757,0.004276057,-0.005497787,0.0012217305,10068044757,52.625
10068053831,-0.9810573,-10.033105,0.111266255,10068053831,0.005497787,-0.0061086523,0.0012217305,10068053831,52.625
10068062934,-0.9810573,-10.04148,0.104087785,10068062934,0.005497787,-0.0061086523,0,10068062934,52.609375
10068072016,-0.9774681,-10.025927,0.09930214,10068072016,0.004886922,-0.004886922,0.00061086525,10068072016,52.609375
10068081086,-0.9774681,-10.04507,0.09332009,10068081086,0.004276057,-0.004276057,0.0012217305,10068081086,52.63672
10068090168,-0.96909314,-10.036695,0.09930214,10068090168,0.004886922,-0.004886922,0.0012217305,10068090168,52.63672
10068099250,-0.9810573,-10.033105,0.10767702,10068099250,0.004886922,-0.004886922,0.0012217305,10068099250,52.589844
10068108355,-0.97866446,-10.033105,0.09930214,10068108355,0.0036651916,-0.004886922,0.0012217305,10068108355,52.589844
10068117426,-0.9774681,-10.035499,0.096909314,10068117426,0.004276057,-0.004276057,0.00061086525,10068117426,52.59375
10068126516,-0.97507524,-10.033105,0.09212367,10068126516,0.004276057,-0.004886922,0.0018325958,10068126516,52.59375
10068135595,-0.9810573,-10.037891,0.08255238,10068135595,0.004276057,-0.004276057,0.00061086525,10068135595,52.59375
10068144676,-0.97866446,-10.037891,0.08733802,10068144676,0.004886922,-0.005497787,0.0018325958,10068144676,52.59375
10068153764,-0.9846465,-10.030712,0.08733802,10068153764,0.004886922,-0.004886922,0,10068153764,52.578125
10068162844,-0.9726824,-10.029516,0.101694964,10068162844,0.004276057,-0.005497787,0,10068162844,52.578125
10068171937,-0.9774681,-10.024731,0.08733802,10068171937,0.005497787,-0.004276057,0.00061086525,10068171937,52.63672
10068181016,-0.9798609,-10.030712,0.09810573,10068181016,0.005497787,-0.004276057,0.0012217305,10068181016,52.63672
10068190205,-0.9810573,-10.034302,0.096909314,10068190205,0.005497787,-0.0030543262,0.0018325958,10068190205,52.61328
10068199193,-0.96909314,-10.034302,0.09810573,10068199193,0.005497787,-0.0030543262,0.0018325958,10068199193,52.61328
10068208270,-0.9738788,-10.034302,0.08853444,10068208270,0.005497787,-0.004276057,0.0018325958,10068208270,52.609375
10068217351,-0.9834501,-10.037891,0.1052842,10068217351,0.0036651916,-0.004276057,0.0012217305,10068217351,52.609375
10068226436,-0.97866446,-10.028319,0.09571291,10068226436,0.004886922,-0.004276057,0.0012217305,10068226436,52.601562
10068235516,-0.9810573,-10.028319,0.09930214,10068235516,0.004276057,-0.0036651916,0.00061086525,10068235516,52.601562
10068244619,-0.9810573,-10.035499,0.09092726,10068244619,0.0036651916,-0.004276057,0.0012217305,10068244619,52.628906
10068253681,-0.97507524,-10.031909,0.09810573,10068253681,0.0036651916,-0.005497787,0.0012217305,10068253681,52.628906
10068262769,-0.9667004,-10.035499,0.09212367,10068262769,0.0061086523,-0.004276057,0.00061086525,10068262769,52.621094
10068271865,-0.9762716,-10.031909,0.10289137,10068271865,0.005497787,-0.0036651916,0.0012217305,10068271865,52.621094
10068280950,-0.9762716,-10.030712,0.101694964,10068280950,0.004276057,-0.0030543262,0.0012217305,10068280950,52.664062
10068290033,-0.96789676,-10.036695,0.08853444,10068290033,0.005497787,-0.0030543262,0.0018325958,10068290033,52.664062
10068299112,-0.9822537,-10.042677,0.09930214,10068299112,0.004886922,-0.002443461,0.0018325958,10068299112,52.61328
10068308203,-0.9822537,-10.033105,0.09571291,10068308203,0.004276057,-0.0036651916,0.0018325958,10068308203,52.61328
10068317269,-0.97866446,-10.033105,0.09212367,10068317269,0.004276057,-0.0036651916,0.00061086525,10068317269,52.59375
10068326373,-0.9774681,-10.030712,0.10887343,10068326373,0.004276057,-0.004886922,0.00061086525,10068326373,52.59375
10068335440,-0.9870393,-10.042677,0.10289137,10068335440,0.004276057,-0.0030543262,0.0012217305,10068335440,52.625
10068344530,-0.97507524,-10.034302,0.104087785,10068344530,0.004276057,-0.004276057,0.0012217305,10068344530,52.625
10068353622,-0.9762716,-10.029516,0.10887343,10068353622,0.0030543262,-0.005497787,0.00061086525,10068353622,52.59375
10068362700,-0.9834501,-10.029516,0.10289137,10068362700,0.004276057,-0.004276057,0.00061086525,10068362700,52.59375
10068371788,-0.9822537,-10.029516,0.10887343,10068371788,0.0036651916,-0.004276057,0.0018325958,10068371788,52.578125
10068380857,-0.9726824,-10.036695,0.09092726,10068380857,0.004886922,-0.004276057,0.0012217305,10068380857,52.578125
10068389939,-0.98584294,-10.030712,0.1052842,10068389939,0.004276057,-0.004886922,0.0012217305,10068389939,52.64453
10068399047,-0.9834501,-10.036695,0.10289137,10068399047,0.004886922,-0.0036651916,0.0012217305,10068399047,52.64453
10068408112,-0.9726824,-10.035499,0.10289137,10068408112,0.004276057,-0.0030543262,0.00061086525,10068408112,52.597656
10068417208,-0.9738788,-10.028319,0.11246266,10068417208,0.004886922,-0.0036651916,0.0012217305,10068417208,52.597656
10068426296,-0.9726824,-10.040284,0.09451649,10068426296,0.004886922,-0.004886922,0.0018325958,10068426296,52.609375
10068435382,-0.9822537,-10.029516,0.11006984,10068435382,0.004276057,-0.005497787,0.0018325958,10068435382,52.609375
10068444457,-0.9846465,-10.031909,0.104087785,10068444457,0.004276057,-0.005497787,0.0012217305,10068444457,52.628906
10068453538,-0.99302137,-10.028319,0.11365908,10068453538,0.0030543262,-0.004886922,0.0012217305,10068453538,52.628906
10068462625,-0.9834501,-10.029516,0.10049855,10068462625,0.004276057,-0.005497787,0.0012217305,10068462625,52.632812
10068471719,-0.9738788,-10.031909,0.09332009,10068471719,0.004886922,-0.004886922,0.0012217305,10068471719,52.632812
10068480804,-0.9774681,-10.034302,0.08973085,10068480804,0.004276057,-0.005497787,0.0018325958,10068480804,52.61328
10068489886,-0.9810573,-10.031909,0.09930214,10068489886,0.0036651916,-0.005497787,0.0012217305,10068489886,52.61328
10068498953,-0.9762716,-10.030712,0.101694964,10068498953,0.0036651916,-0.005497787,0.00061086525,10068498953,52.625
10068508045,-0.97866446,-10.031909,0.09332009,10068508045,0.004276057,-0.004276057,0.0018325958,10068508045,52.625
10068517129,-0.98584294,-10.034302,0.10049855,10068517129,0.004886922,-0.004886922,0.0012217305,10068517129,52.628906
10068526219,-0.9834501,-10.037891,0.10049855,10068526219,0.004886922,-0.004886922,0.00061086525,10068526219,52.628906
10068535300,-0.9810573,-10.027123,0.09332009,10068535300,0.004276057,-0.004886922,0.00061086525,10068535300,52.632812
10068544374,-0.97866446,-10.035499,0.08973085,10068544374,0.004276057,-0.005497787,0.0012217305,10068544374,52.632812
10068553462,-0.9834501,-10.031909,0.09092726,10068553462,0.004276057,-0.005497787,0.0012217305,10068553462,52.621094
10068562561,-0.9774681,-10.030712,0.09810573,10068562561,0.004276057,-0.005497787,0.0012217305,10068562561,52.621094
10068571636,-0.96789676,-10.025927,0.08853444,10068571636,0.004886922,-0.004886922,0.0012217305,10068571636,52.609375
10068580714,-0.9726824,-10.034302,0.08733802,10068580714,0.004276057,-0.004276057,0.0012217305,10068580714,52.609375
10068589796,-0.9762716,-10.035499,0.09332009,10068589796,0.004276057,-0.004276057,0.00061086525,10068589796,52.63672
10068598877,-0.9822537,-10.027123,0.106480606,10068598877,0.005497787,-0.004276057,0.0012217305,10068598877,52.63672
10068607967,-0.9834501,-10.028319,0.08853444,10068607967,0.0061086523,-0.004276057,0.0012217305,10068607967,52.640625
10068617044,-0.9738788,-10.030712,0.10289137,10068617044,0.004276057,-0.004276057,0.0012217305,10068617044,52.640625
10068626142,-0.9822537,-10.039087,0.09810573,10068626142,0.0036651916,-0.004276057,0.00061086525,10068626142,52.632812
10068635215,-0.9834501,-10.030712,0.09810573,10068635215,0.005497787,-0.004276057,0.0012217305,10068635215,52.632812
10068644308,-0.9846465,-10.030712,0.10767702,10068644308,0.004276057,-0.004886922,0.00061086525,10068644308,52.640625
10068653382,-0.9834501,-10.036695,0.08853444,10068653382,0.004886922,-0.004276057,0.0012217305,10068653382,52.640625
10068662482,-0.9822537,-10.031909,0.09810573,10068662482,0.004886922,-0.002443461,0.00061086525,10068662482,52.66797
10068671570,-0.9798609,-10.04507,0.10289137,10068671570,0.004276057,-0.004276057,0,10068671570,52.66797
10068680062,-0.9870393,-10.031909,0.08853444,10068680062,0.005497787,-0.002443461,0.00061086525,10068680062,52.66797
10068683681,-0.9726824,-10.031909,0.106480606,10068683681,0.004886922,-0.0036651916,0.00061086525,10068683681,52.66797
10068698802,-0.98584294,-10.036695,0.10049855,10068698802,0.004886922,-0.0036651916,0.00061086525,10068698802,52.632812
10068707905,-0.9774681,-10.031909,0.08255238,10068707905,0.004886922,-0.004276057,0.00061086525,10068707905,52.632812
10068716967,-0.9834501,-10.035499,0.104087785,10068716967,0.004886922,-0.0036651916,0.0018325958,10068716967,52.632812
10068726055,-0.9774681,-10.030712,0.096909314,10068726055,0.004276057,-0.0036651916,0.00061086525,10068726055,52.632812
10068735143,-0.9798609,-10.037891,0.09810573,10068735143,0.004276057,-0.0036651916,0.0018325958,10068735143,52.660156
10068744221,-0.9798609,-10.035499,0.10049855,10068744221,0.004886922,-0.004276057,0.002443461,10068744221,52.660156
10068753308,-0.97866446,-10.029516,0.10289137,10068753308,0.004886922,-0.004276057,0.0012217305,10068753308,52.652344
10068762389,-0.9762716,-10.028319,0.10767702,10068762389,0.004886922,-0.004276057,0.0012217305,10068762389,52.652344
10068771474,-0.9738788,-10.027123,0.104087785,10068771474,0.004276057,-0.0030543262,0.0018325958,10068771474,52.632812
10068780567,-0.9774681,-10.034302,0.1052842,10068780567,0.004886922,-0.0036651916,0.0012217305,10068780567,52.632812
10068789649,-0.9762716,-10.04148,0.10049855,10068789649,0.004276057,-0.004276057,0.0012217305,10068789649,52.628906
10068798743,-0.9726824,-10.039087,0.111266255,10068798743,0.0030543262,-0.0036651916,0.00061086525,10068798743,52.628906
10068807816,-0.9762716,-10.04148,0.09930214,10068807816,0.004886922,-0.004276057,0.0012217305,10068807816,52.628906
10068816892,-0.9870393,-10.028319,0.10767702,10068816892,0.0036651916,-0.004276057,0.00061086525,10068816892,52.628906
10068825988,-0.9846465,-10.031909,0.10767702,10068825988,0.0036651916,-0.004276057,0.0012217305,10068825988,52.632812
10068835084,-0.9834501,-10.037891,0.101694964,10068835084,0.004276057,-0.004276057,0.00061086525,10068835084,52.632812
10068844150,-0.9954142,-10.033105,0.1052842,10068844150,0.004276057,-0.004886922,0.00061086525,10068844150,52.652344
10068853240,-0.9846465,-10.034302,0.11006984,10068853240,0.004886922,-0.004886922,0.0012217305,10068853240,52.652344
10068862322,-0.9834501,-10.035499,0.10767702,10068862322,0.0061086523,-0.004276057,0.0012217305,10068862322,52.61328
10068871414,-0.9906286,-10.028319,0.106480606,10068871414,0.004886922,-0.004276057,0.0012217305,10068871414,52.61328
10068880495,-0.9798609,-10.035499,0.104087785,10068880495,0.004276057,-0.004886922,0.00061086525,10068880495,52.625
10068889577,-0.9846465,-10.031909,0.11246266,10068889577,0.0061086523,-0.004276057,0.00061086525,10068889577,52.625
10068898663,-0.9762716,-10.042677,0.11246266,10068898663,0.004886922,-0.004276057,0.0012217305,10068898663,52.585938
10068907733,-0.99302137,-10.040284,0.10289137,10068907733,0.002443461,-0.004886922,0.0012217305,10068907733,52.585938
10068916817,-0.9834501,-10.034302,0.11724831,10068916817,0.0036651916,-0.005497787,0.0012217305,10068916817,52.585938
10068925913,-0.9774681,-10.033105,0.106480606,10068925913,0.0036651916,-0.0061086523,0.00061086525,10068925913,52.585938
10068934999,-0.97866446,-10.031909,0.10767702,10068934999,0.0036651916,-0.005497787,0.0018325958,10068934999,52.63672
10068944074,-0.9798609,-10.037891,0.10887343,10068944074,0.0036651916,-0.005497787,0.0018325958,10068944074,52.63672
10068953155,-0.9798609,-10.033105,0.10767702,10068953155,0.005497787,-0.004886922,0.0012217305,10068953155,52.660156
10068962246,-0.9762716,-10.025927,0.09930214,10068962246,0.004886922,-0.004886922,0.00061086525,10068962246,52.660156
10068971337,-0.9762716,-10.023534,0.1052842,10068971337,0.0036651916,-0.004886922,0.0012217305,10068971337,52.61328
10068980408,-0.98943216,-10.031909,0.10049855,10068980408,0.0036651916,-0.0036651916,0.0018325958,10068980408,52.61328
10068989490,-0.98943216,-10.033105,0.09810573,10068989490,0.004276057,-0.004886922,0.002443461,10068989490,52.601562
10068998584,-0.9810573,-10.030712,0.09451649,10068998584,0.004276057,-0.004886922,0.0018325958,10068998584,52.601562
10069007660,-0.9667004,-10.036695,0.08733802,10069007660,0.004886922,-0.004886922,0.0018325958,10069007660,52.617188
10069016742,-0.971486,-10.035499,0.101694964,10069016742,0.004276057,-0.005497787,0.0012217305,10069016742,52.617188
10069025840,-0.9870393,-10.034302,0.09092726,10069025840,0.004886922,-0.004886922,0.0012217305,10069025840,52.64453
10069034921,-0.9810573,-10.04148,0.10049855,10069034921,0.005497787,-0.004886922,0.0012217305,10069034921,52.64453
10069044007,-0.9882358,-10.039087,0.09930214,10069044007,0.004886922,-0.004276057,0.0018325958,10069044007,52.640625
10069053086,-0.98584294,-10.037891,0.10289137,10069053086,0.004886922,-0.004276057,0.002443461,10069053086,52.640625
10069062172,-0.9774681,-10.04148,0.09332009,10069062172,0.004886922,-0.004276057,0.00061086525,10069062172,52.621094
10069071253,-0.9762716,-10.030712,0.09332009,10069071253,0.004276057,-0.004886922,0.00061086525,10069071253,52.621094
10069080334,-0.9870393,-10.030712,0.10289137,10069080334,0.004276057,-0.0036651916,0.0012217305,10069080334,52.617188
10069089416,-0.97507524,-10.031909,0.08853444,10069089416,0.0036651916,-0.0036651916,0.0018325958,10069089416,52.617188
10069098506,-0.9810573,-10.034302,0.10049855,10069098506,0.004276057,-0.0036651916,0.0012217305,10069098506,52.63672
10069107591,-0.9738788,-10.034302,0.09810573,10069107591,0.004886922,-0.004276057,0.0012217305,10069107591,52.63672
10069116679,-0.97866446,-10.021141,0.1052842,10069116679,0.004886922,-0.004276057,0.00061086525,10069116679,52.652344
10069125763,-0.97507524,-10.039087,0.09332009,10069125763,0.004276057,-0.005497787,0.0012217305,10069125763,52.652344
10069134842,-0.9774681,-10.029516,0.09810573,10069134842,0.004276057,-0.004886922,0.0018325958,10069134842,52.628906
10069143933,-0.9810573,-10.027123,0.10049855,10069143933,0.005497787,-0.0036651916,0.0018325958,10069143933,52.628906
10069153014,-0.98584294,-10.040284,0.09332009,10069153014,0.004886922,-0.0036651916,0.0012217305,10069153014,52.64453
10069162092,-0.97507524,-10.037891,0.09451649,10069162092,0.004276057,-0.0036651916,0.0012217305,10069162092,52.64453
10069171190,-0.9798609,-10.036695,0.09810573,10069171190,0.0036651916,-0.0036651916,0.0018325958,10069171190,52.621094
10069180268,-0.9870393,-10.039087,0.09571291,10069180268,0.004886922,-0.004276057,0.0012217305,10069180268,52.621094
10069189350,-0.9774681,-10.035499,0.09451649,10069189350,0.0061086523,-0.0036651916,0.0012217305,10069189350,52.63672
10069198432,-0.9774681,-10.033105,0.09810573,10069198432,0.0061086523,-0.0036651916,0,10069198432,52.63672
10069207508,-0.9834501,-10.037891,0.1052842,10069207508,0.0061086523,-0.0030543262,0,10069207508,52.61328
10069216607,-0.97866446,-10.033105,0.106480606,10069216607,0.005497787,-0.0036651916,0.0018325958,10069216607,52.61328
10069225688,-0.9762716,-10.029516,0.096909314,10069225688,0.004276057,-0.0036651916,0.00061086525,10069225688,52.628906
10069234778,-0.9810573,-10.024731,0.106480606,10069234778,0.0036651916,-0.004276057,0.0018325958,10069234778,52.628906
10069243842,-0.97507524,-10.034302,0.101694964,10069243842,0.004276057,-0.004276057,0.0012217305,10069243842,52.628906
10069252931,-0.97507524,-10.034302,0.101694964,10069252931,0.005497787,-0.0036651916,0.0018325958,10069252931,52.628906
10069262036,-0.97866446,-10.030712,0.10049855,10069262036,0.004276057,-0.004886922,0.00061086525,10069262036,52.617188
10069271119,-0.9726824,-10.034302,0.10767702,10069271119,0.004276057,-0.0030543262,0.0012217305,10069271119,52.617188
10069280190,-0.9810573,-10.036695,0.11006984,10069280190,0.004886922,-0.004276057,0.0012217305,10069280190,52.625
10069289272,-0.9834501,-10.028319,0.106480606,10069289272,0.005497787,-0.0036651916,0.0012217305,10069289272,52.625
10069298353,-0.9846465,-10.035499,0.10767702,10069298353,0.004886922,-0.0030543262,0.0012217305,10069298353,52.628906
10069307433,-0.9870393,-10.036695,0.106480606,10069307433,0.004276057,-0.0036651916,0.0018325958,10069307433,52.628906
10069316539,-0.9954142,-10.035499,0.10887343,10069316539,0.004276057,-0.004276057,0.0012217305,10069316539,52.660156
10069325605,-0.9762716,-10.034302,0.10767702,10069325605,0.005497787,-0.005497787,0.0012217305,10069325605,52.660156
10069334688,-0.9738788,-10.030712,0.10767702,10069334688,0.004886922,-0.004886922,0.00061086525,10069334688,52.597656
10069343791,-0.97866446,-10.039087,0.1052842,10069343791,0.005497787,-0.005497787,0.00061086525,10069343791,52.597656
10069352862,-0.9738788,-10.030712,0.104087785,10069352862,0.004886922,-0.004886922,0.0018325958,10069352862,52.578125
10069361946,-0.9870393,-10.036695,0.09810573,10069361946,0.004886922,-0.0036651916,0.0018325958,10069361946,52.578125
10069371027,-0.97866446,-10.031909,0.09451649,10069371027,0.0036651916,-0.004886922,0.0012217305,10069371027,52.63672
10069380260,-0.9822537,-10.029516,0.09810573,10069380260,0.004276057,-0.005497787,0.002443461,10069380260,52.63672
10069389201,-0.9762716,-10.039087,0.1052842,10069389201,0.0036651916,-0.0036651916,0.0018325958,10069389201,52.60547
10069398289,-0.9762716,-10.039087,0.106480606,10069398289,0.004276057,-0.004276057,0.0018325958,10069398289,52.60547
10069407374,-0.9906286,-10.04148,0.09810573,10069407374,0.004276057,-0.0036651916,0.002443461,10069407374,52.609375
10069416444,-0.9846465,-10.030712,0.11365908,10069416444,0.0036651916,-0.004276057,0.0012217305,10069416444,52.609375
10069425534,-0.9762716,-10.037891,0.10767702,10069425534,0.004276057,-0.004886922,0.0012217305,10069425534,52.628906
10069434622,-0.9762716,-10.042677,0.10767702,10069434622,0.004276057,-0.005497787,0.0012217305,10069434622,52.628906
10069443713,-0.9798609,-10.034302,0.101694964,10069443713,0.0030543262,-0.005497787,0.00061086525,10069443713,52.58203
10069452799,-0.9774681,-10.037891,0.10049855,10069452799,0.004276057,-0.005497787,0.0012217305,10069452799,52.58203
10069461879,-0.9762716,-10.029516,0.10049855,10069461879,0.004276057,-0.005497787,0.0012217305,10069461879,52.601562
10069470969,-0.9810573,-10.039087,0.09571291,10069470969,0.004886922,-0.004886922,0.0018325958,10069470969,52.601562
10069480188,-0.97866446,-10.035499,0.10049855,10069480188,0.0036651916,-0.004886922,0.0012217305,10069480188,52.578125
10069489129,-0.9774681,-10.029516,0.106480606,10069489129,0.0030543262,-0.0036651916,0.0012217305,10069489129,52.578125
10069498215,-0.9834501,-10.035499,0.09810573,10069498215,0.004276057,-0.004886922,0.0012217305,10069498215,52.617188
10069507305,-0.98584294,-10.037891,0.096909314,10069507305,0.004276057,-0.004276057,0.0012217305,10069507305,52.617188
10069516367,-0.9774681,-10.040284,0.09332009,10069516367,0.004276057,-0.0036651916,0,10069516367,52.617188
10069525468,-0.9738788,-10.024731,0.09930214,10069525468,0.004886922,-0.004276057,0,10069525468,52.617188
10069534558,-0.9762716,-10.033105,0.096909314,10069534558,0.004886922,-0.004276057,0.00061086525,10069534558,52.625
10069543642,-0.9846465,-10.040284,0.09332009,10069543642,0.004276057,-0.005497787,0.0012217305,10069543642,52.625
10069552705,-0.97866446,-10.037891,0.09930214,10069552705,0.004276057,-0.004886922,0.00061086525,10069552705,52.601562
10069561804,-0.96909314,-10.043873,0.0849452,10069561804,0.004276057,-0.004886922,0.00061086525,10069561804,52.601562
10069570890,-0.9846465,-10.035499,0.104087785,10069570890,0.004886922,-0.004886922,0.0018325958,10069570890,52.625
10069580151,-0.9738788,-10.030712,0.09571291,10069580151,0.004886922,-0.0036651916,0.0012217305,10069580151,52.625
10069589045,-0.97507524,-10.04148,0.09571291,10069589045,0.004886922,-0.0036651916,0.00061086525,10069589045,52.609375
10069598126,-0.9870393,-10.037891,0.106480606,10069598126,0.004886922,-0.0036651916,0.00061086525,10069598126,52.609375
10069607228,-0.98584294,-10.035499,0.09810573,10069607228,0.004276057,-0.0036651916,0.0012217305,10069607228,52.601562
10069616303,-0.9834501,-10.030712,0.10767702,10069616303,0.004886922,-0.0036651916,0.0012217305,10069616303,52.601562
10069625392,-0.9810573,-10.029516,0.096909314,10069625392,0.004276057,-0.004276057,0.0012217305,10069625392,52.601562
10069634474,-0.97507524,-10.036695,0.096909314,10069634474,0.004276057,-0.0030543262,0.0012217305,10069634474,52.601562
10069643565,-0.9798609,-10.025927,0.09451649,10069643565,0.0036651916,-0.004276057,0.002443461,10069643565,52.609375
10069652633,-0.9774681,-10.033105,0.09930214,10069652633,0.005497787,-0.004276057,0.0012217305,10069652633,52.609375
10069661722,-0.9834501,-10.036695,0.10289137,10069661722,0.004276057,-0.004276057,0.00061086525,10069661722,52.585938
10069670802,-0.9726824,-10.037891,0.104087785,10069670802,0.004276057,-0.0036651916,0.0012217305,10069670802,52.585938
10069679884,-0.98584294,-10.039087,0.10767702,10069679884,0.004276057,-0.0036651916,0.0018325958,10069679884,52.609375
10069688982,-0.9846465,-10.035499,0.09930214,10069688982,0.004886922,-0.0036651916,0.0012217305,10069688982,52.609375
10069698067,-0.9846465,-10.028319,0.09930214,10069698067,0.004886922,-0.004886922,0.0012217305,10069698067,52.617188
10069707142,-0.9774681,-10.035499,0.10767702,10069707142,0.005497787,-0.0036651916,0.0012217305,10069707142,52.617188
10069716235,-0.9762716,-10.033105,0.10887343,10069716235,0.004276057,-0.004276057,0.0012217305,10069716235,52.65625
10069725308,-0.9762716,-10.027123,0.10887343,10069725308,0.004276057,-0.004276057,0.0012217305,10069725308,52.65625
10069734400,-0.9834501,-10.028319,0.10887343,10069734400,0.005497787,-0.004276057,0.0012217305,10069734400,52.621094
10069743487,-0.9738788,-10.040284,0.09571291,10069743487,0.004276057,-0.0036651916,0.00061086525,10069743487,52.621094
10069752558,-0.9798609,-10.040284,0.1052842,10069752558,0.004886922,-0.0036651916,0,10069752558,52.63672
10069761651,-0.98584294,-10.033105,0.10049855,10069761651,0.005497787,-0.0036651916,0.00061086525,10069761651,52.63672
10069770726,-0.9906286,-10.036695,0.101694964,10069770726,0.004886922,-0.004276057,0.0012217305,10069770726,52.597656
10069779808,-0.9774681,-10.034302,0.09930214,10069779808,0.004886922,-0.004886922,0.0012217305,10069779808,52.597656
10069788889,-0.97866446,-10.024731,0.09571291,10069788889,0.005497787,-0.0030543262,0.0018325958,10069788889,52.628906
10069797988,-0.9738788,-10.035499,0.101694964,10069797988,0.004886922,-0.004276057,0.0012217305,10069797988,52.628906
10069807077,-0.9762716,-10.033105,0.11365908,10069807077,0.004276057,-0.004886922,0.0012217305,10069807077,52.621094
10069816156,-0.9810573,-10.036695,0.106480606,10069816156,0.004886922,-0.005497787,0.0012217305,10069816156,52.621094
10069825244,-0.9762716,-10.030712,0.11485548,10069825244,0.0036651916,-0.004886922,0.0012217305,10069825244,52.625
10069834326,-0.9810573,-10.035499,0.11844472,10069834326,0.0036651916,-0.004276057,0.0012217305,10069834326,52.625
10069843411,-0.9762716,-10.042677,0.101694964,10069843411,0.004886922,-0.0036651916,0.0018325958,10069843411,52.65625
10069852485,-0.9810573,-10.04148,0.10887343,10069852485,0.0036651916,-0.004276057,0.0012217305,10069852485,52.65625
10069861572,-0.9702896,-10.039087,0.104087785,10069861572,0.004886922,-0.004886922,0.00061086525,10069861572,52.683594
10069870664,-0.97507524,-10.033105,0.10887343,10069870664,0.004276057,-0.004276057,0.0012217305,10069870664,52.683594
10069879747,-0.9702896,-10.034302,0.10767702,10069879747,0.004276057,-0.005497787,0.0018325958,10069879747,52.640625
10069888826,-0.96909314,-10.037891,0.104087785,10069888826,0.005497787,-0.004276057,0.0018325958,10069888826,52.640625
10069897903,-0.971486,-10.036695,0.106480606,10069897903,0.004886922,-0.004886922,0.00061086525,10069897903,52.566406
10069906987,-0.9726824,-10.034302,0.09571291,10069906987,0.004276057,-0.004886922,0.00061086525,10069906987,52.566406
10069916068,-0.9726824,-10.033105,0.10767702,10069916068,0.004886922,-0.004886922,0.0012217305,10069916068,52.609375
10069925152,-0.9846465,-10.040284,0.08973085,10069925152,0.0036651916,-0.004886922,0,10069925152,52.609375
10069934240,-0.9846465,-10.033105,0.09930214,10069934240,0.004886922,-0.005497787,0.0012217305,10069934240,52.64453
10069943332,-0.9798609,-10.033105,0.1052842,10069943332,0.004276057,-0.0061086523,0.0012217305,10069943332,52.64453
10069952426,-0.9762716,-10.024731,0.09930214,10069952426,0.004276057,-0.005497787,0.00061086525,10069952426,52.640625
10069961501,-0.97866446,-10.035499,0.08973085,10069961501,0.004886922,-0.0061086523,0.00061086525,10069961501,52.640625
10069970595,-0.9738788,-10.029516,0.10049855,10069970595,0.004276057,-0.004886922,0.0012217305,10069970595,52.628906
10069979678,-0.97507524,-10.036695,0.09332009,10069979678,0.004886922,-0.004276057,0.00061086525,10069979678,52.628906
10069988741,-0.9846465,-10.039087,0.08135597,10069988741,0.004886922,-0.004276057,0.00061086525,10069988741,52.617188
10069997827,-0.9774681,-10.035499,0.08973085,10069997827,0.004886922,-0.004276057,0.0018325958,10069997827,52.617188
10070006916,-0.9798609,-10.033105,0.08973085,10070006916,0.0036651916,-0.0036651916,0.00061086525,10070006916,52.63672
10070015993,-0.9834501,-10.036695,0.09332009,10070015993,0.0036651916,-0.0036651916,0.00061086525,10070015993,52.63672
10070025081,-0.9798609,-10.029516,0.09092726,10070025081,0.004276057,-0.0030543262,0.00061086525,10070025081,52.60547
10070034179,-0.9726824,-10.028319,0.096909314,10070034179,0.004276057,-0.0036651916,0.0018325958,10070034179,52.60547
10070043246,-0.97866446,-10.035499,0.09930214,10070043246,0.004886922,-0.004886922,0.0012217305,10070043246,52.5625
10070052337,-0.97507524,-10.030712,0.104087785,10070052337,0.0030543262,-0.004276057,0.0012217305,10070052337,52.5625
10070061429,-0.9762716,-10.036695,0.09810573,10070061429,0.0030543262,-0.0036651916,0.0012217305,10070061429,52.625
10070070496,-0.97507524,-10.034302,0.09571291,10070070496,0.004886922,-0.004276057,0.0012217305,10070070496,52.625
10070079578,-0.9774681,-10.036695,0.1052842,10070079578,0.004886922,-0.0036651916,0.0012217305,10070079578,52.625
10070088674,-0.9774681,-10.031909,0.09092726,10070088674,0.004886922,-0.0036651916,0.00061086525,10070088674,52.625
10070097759,-0.98943216,-10.036695,0.09810573,10070097759,0.004886922,-0.004276057,0.0018325958,10070097759,52.617188
10070106834,-0.9834501,-10.035499,0.09451649,10070106834,0.0030543262,-0.004276057,0.00061086525,10070106834,52.617188
10070115916,-0.9810573,-10.04148,0.101694964,10070115916,0.004276057,-0.004886922,0.00061086525,10070115916,52.59375
10070125018,-0.9774681,-10.034302,0.096909314,10070125018,0.004886922,-0.004276057,0.0018325958,10070125018,52.59375
10070134106,-0.9822537,-10.033105,0.10289137,10070134106,0.005497787,-0.004276057,0.0012217305,10070134106,52.585938
10070143171,-0.9810573,-10.036695,0.10049855,10070143171,0.004276057,-0.0036651916,0.0012217305,10070143171,52.585938
10070152275,-0.9774681,-10.040284,0.09451649,10070152275,0.004276057,-0.004276057,0,10070152275,52.628906
10070161360,-0.9798609,-10.033105,0.09810573,10070161360,0.005497787,-0.004276057,0,10070161360,52.628906
10070170432,-0.9738788,-10.037891,0.106480606,10070170432,0.004276057,-0.004276057,0.00061086525,10070170432,52.640625
10070179514,-0.971486,-10.023534,0.096909314,10070179514,0.004276057,-0.004276057,0.0012217305,10070179514,52.640625
10070188599,-0.9834501,-10.029516,0.09810573,10070188599,0.005497787,-0.004886922,0.00061086525,10070188599,52.640625
10070197693,-0.9834501,-10.033105,0.08853444,10070197693,0.005497787,-0.0036651916,0.0012217305,10070197693,52.640625
10070206762,-0.9798609,-10.033105,0.10049855,10070206762,0.004276057,-0.004276057,0.00061086525,10070206762,52.58203
10070215845,-0.9810573,-10.035499,0.106480606,10070215845,0.005497787,-0.0030543262,0.0012217305,10070215845,52.58203
10070224942,-0.9774681,-10.030712,0.09571291,10070224942,0.005497787,-0.0036651916,0.00061086525,10070224942,52.625
10070234027,-0.9822537,-10.035499,0.1052842,10070234027,0.004276057,-0.0030543262,0.00061086525,10070234027,52.625
10070243115,-0.9798609,-10.031909,0.104087785,10070243115,0.005497787,-0.0036651916,0.0018325958,10070243115,52.671875
10070252200,-0.9738788,-10.028319,0.11246266,10070252200,0.004886922,-0.004276057,0.0018325958,10070252200,52.671875
10070261273,-0.9798609,-10.027123,0.10887343,10070261273,0.004276057,-0.0036651916,0.0018325958,10070261273,52.660156
10070270347,-0.9774681,-10.027123,0.1052842,10070270347,0.0036651916,-0.004276057,0.00061086525,10070270347,52.660156
10070279429,-0.9822537,-10.035499,0.1160519,10070279429,0.004886922,-0.0036651916,0.00061086525,10070279429,52.632812
10070288517,-0.9810573,-10.031909,0.10767702,10070288517,0.004886922,-0.004276057,0.0012217305,10070288517,52.632812
10070297607,-0.9762716,-10.034302,0.11246266,10070297607,0.004886922,-0.0036651916,0.00061086525,10070297607,52.652344
10070306701,-0.98943216,-10.019945,0.10289137,10070306701,0.004276057,-0.005497787,0.00061086525,10070306701,52.652344
10070315786,-0.9810573,-10.035499,0.10289137,10070315786,0.004276057,-0.004886922,0.00061086525,10070315786,52.61328
10070324868,-0.9942178,-10.023534,0.11485548,10070324868,0.005497787,-0.005497787,0.0012217305,10070324868,52.61328
10070333952,-0.9846465,-10.037891,0.10767702,10070333952,0.005497787,-0.005497787,0.0018325958,10070333952,52.628906
10070343022,-0.9738788,-10.033105,0.111266255,10070343022,0.004886922,-0.0061086523,0.0012217305,10070343022,52.628906
10070352114,-0.9810573,-10.033105,0.09930214,10070352114,0.004276057,-0.004886922,0.00061086525,10070352114,52.621094
10070361207,-0.98584294,-10.030712,0.09332009,10070361207,0.004886922,-0.004276057,0.0018325958,10070361207,52.621094
10070370353,-0.97866446,-10.030712,0.096909314,10070370353,0.005497787,-0.004886922,0.002443461,10070370353,52.609375
10070379365,-0.9822537,-10.040284,0.11006984,10070379365,0.0036651916,-0.004886922,0.0018325958,10070379365,52.609375
10070388451,-0.9846465,-10.036695,0.096909314,10070388451,0.0036651916,-0.005497787,0.00061086525,10070388451,52.609375
10070397542,-0.971486,-10.036695,0.09332009,10070397542,0.0030543262,-0.004886922,0.0012217305,10070397542,52.609375
10070406616,-0.9762716,-10.035499,0.08853444,10070406616,0.004886922,-0.0061086523,0.0012217305,10070406616,52.617188
10070415713,-0.9834501,-10.040284,0.101694964,10070415713,0.004886922,-0.005497787,0.00061086525,10070415713,52.617188
10070424796,-0.97507524,-10.036695,0.09930214,10070424796,0.004276057,-0.004886922,0.00061086525,10070424796,52.625
10070433881,-0.9726824,-10.033105,0.10049855,10070433881,0.004276057,-0.004886922,0.00061086525,10070433881,52.625
10070442955,-0.971486,-10.04148,0.0849452,10070442955,0.0036651916,-0.004886922,0.0012217305,10070442955,52.601562
10070452046,-0.98584294,-10.030712,0.08015956,10070452046,0.004276057,-0.004886922,0.0018325958,10070452046,52.601562
10070461132,-0.9774681,-10.030712,0.104087785,10070461132,0.004276057,-0.004276057,0.0018325958,10070461132,52.628906
10070470346,-0.9738788,-10.031909,0.09930214,10070470346,0.004276057,-0.004886922,0.0012217305,10070470346,52.628906
10070479287,-0.96909314,-10.034302,0.10049855,10070479287,0.004886922,-0.004886922,0.0018325958,10070479287,52.628906
10070488369,-0.97507524,-10.030712,0.09930214,10070488369,0.004276057,-0.0030543262,0.0012217305,10070488369,52.628906
10070497458,-0.97866446,-10.029516,0.08973085,10070497458,0.0036651916,-0.004276057,0,10070497458,52.59375
10070506545,-0.9738788,-10.035499,0.10049855,10070506545,0.0036651916,-0.004886922,0.00061086525,10070506545,52.59375
10070515633,-0.9738788,-10.034302,0.09930214,10070515633,0.004276057,-0.005497787,0.00061086525,10070515633,52.609375
10070524694,-0.97866446,-10.028319,0.08973085,10070524694,0.004886922,-0.004886922,0.0012217305,10070524694,52.609375
10070533795,-0.9798609,-10.035499,0.101694964,10070533795,0.005497787,-0.004276057,0.0012217305,10070533795,52.570312
10070542872,-0.97507524,-10.031909,0.09451649,10070542872,0.004886922,-0.004886922,0.00061086525,10070542872,52.570312
10070551953,-0.9834501,-10.040284,0.09212367,10070551953,0.005497787,-0.005497787,0.0012217305,10070551953,52.617188
10070561051,-0.98943216,-10.039087,0.08853444,10070561051,0.0036651916,-0.004886922,0.0012217305,10070561051,52.617188
10070570239,-0.9738788,-10.034302,0.09571291,10070570239,0.004276057,-0.004886922,0.0018325958,10070570239,52.625
10070579227,-0.97507524,-10.025927,0.09212367,10070579227,0.005497787,-0.004276057,0.0012217305,10070579227,52.625
10070588303,-0.97507524,-10.027123,0.09571291,10070588303,0.004276057,-0.004276057,0.0012217305,10070588303,52.65625
10070597392,-0.9762716,-10.036695,0.106480606,10070597392,0.004276057,-0.004886922,0.0012217305,10070597392,52.65625
10070606474,-0.9810573,-10.027123,0.08973085,10070606474,0.004886922,-0.004886922,0.0018325958,10070606474,52.60547
10070615549,-0.9822537,-10.034302,0.096909314,10070615549,0.0036651916,-0.0036651916,0.0012217305,10070615549,52.60547
10070624633,-0.9798609,-10.036695,0.08853444,10070624633,0.004276057,-0.004276057,0.00061086525,10070624633,52.601562
10070633727,-0.97866446,-10.036695,0.10289137,10070633727,0.005497787,-0.004276057,0.0018325958,10070633727,52.601562
10070642814,-0.9726824,-10.031909,0.09212367,10070642814,0.005497787,-0.0036651916,0.0012217305,10070642814,52.609375
10070651887,-0.9774681,-10.036695,0.09930214,10070651887,0.0036651916,-0.0030543262,0.00061086525,10070651887,52.609375
10070660975,-0.9822537,-10.035499,0.10289137,10070660975,0.004276057,-0.0036651916,0.0012217305,10070660975,52.625
10070670238,-0.971486,-10.029516,0.1052842,10070670238,0.0061086523,-0.0036651916,0.0012217305,10070670238,52.625
10070679132,-0.971486,-10.037891,0.111266255,10070679132,0.004276057,-0.0036651916,0.0012217305,10070679132,52.625
10070688220,-0.9774681,-10.031909,0.09571291,10070688220,0.004886922,-0.004276057,0.0012217305,10070688220,52.625
10070697315,-0.9762716,-10.039087,0.104087785,10070697315,0.004886922,-0.004276057,0.0012217305,10070697315,52.585938
10070706393,-0.9810573,-10.037891,0.10289137,10070706393,0.004886922,-0.0036651916,0.0012217305,10070706393,52.585938
10070715489,-0.9702896,-10.028319,0.11246266,10070715489,0.004276057,-0.0036651916,0.0012217305,10070715489,52.65625
10070724563,-0.97866446,-10.030712,0.106480606,10070724563,0.004276057,-0.005497787,0.0012217305,10070724563,52.65625
10070733637,-0.9822537,-10.027123,0.11365908,10070733637,0.004276057,-0.005497787,0.00061086525,10070733637,52.621094
10070742726,-0.98584294,-10.033105,0.104087785,10070742726,0.0036651916,-0.004886922,0.0012217305,10070742726,52.621094
10070751819,-0.97866446,-10.028319,0.104087785,10070751819,0.004886922,-0.004886922,0.0018325958,10070751819,52.63672
10070760909,-0.9738788,-10.029516,0.09571291,10070760909,0.004886922,-0.004276057,0.0012217305,10070760909,52.63672
10070769992,-0.9882358,-10.037891,0.09092726,10070769992,0.004276057,-0.004276057,0.0012217305,10070769992,52.632812
10070779063,-0.9870393,-10.033105,0.09092726,10070779063,0.0036651916,-0.004886922,0.0012217305,10070779063,52.632812
10070788145,-0.97866446,-10.036695,0.08973085,10070788145,0.004276057,-0.004886922,0.00061086525,10070788145,52.60547
10070797238,-0.9846465,-10.033105,0.09571291,10070797238,0.004886922,-0.005497787,0.00061086525,10070797238,52.60547
10070806318,-0.9762716,-10.036695,0.09332009,10070806318,0.004886922,-0.004886922,0.0012217305,10070806318,52.609375
10070815406,-0.9774681,-10.035499,0.09810573,10070815406,0.004886922,-0.004886922,0.0012217305,10070815406,52.609375
10070824497,-0.9834501,-10.036695,0.09092726,10070824497,0.005497787,-0.004276057,0.0012217305,10070824497,52.609375
10070833574,-0.97507524,-10.025927,0.09571291,10070833574,0.005497787,-0.005497787,0.00061086525,10070833574,52.609375
10070842651,-0.9834501,-10.036695,0.101694964,10070842651,0.004886922,-0.004886922,0.0012217305,10070842651,52.625
10070851744,-0.9762716,-10.039087,0.096909314,10070851744,0.004276057,-0.004886922,0.0012217305,10070851744,52.625
10070860828,-0.9870393,-10.040284,0.09571291,10070860828,0.004886922,-0.004886922,0.0018325958,10070860828,52.679688
10070869910,-0.98943216,-10.035499,0.09332009,10070869910,0.004276057,-0.0036651916,0.00061086525,10070869910,52.679688
10070878996,-0.9834501,-10.031909,0.09930214,10070878996,0.004886922,-0.0036651916,0.0018325958,10070878996,52.652344
10070888077,-0.9798609,-10.036695,0.10289137,10070888077,0.0036651916,-0.0036651916,0.0018325958,10070888077,52.652344
10070897165,-0.9846465,-10.036695,0.096909314,10070897165,0.0036651916,-0.004276057,0.0018325958,10070897165,52.589844
10070906232,-0.9726824,-10.036695,0.09092726,10070906232,0.004276057,-0.004886922,0.0012217305,10070906232,52.589844
10070915319,-0.97507524,-10.039087,0.09332009,10070915319,0.0036651916,-0.004276057,0.0012217305,10070915319,52.625
10070924411,-0.9702896,-10.030712,0.09092726,10070924411,0.004886922,-0.004886922,0.0012217305,10070924411,52.625
10070933493,-0.9726824,-10.030712,0.09332009,10070933493,0.004886922,-0.0036651916,0.0012217305,10070933493,52.601562
10070942576,-0.9846465,-10.037891,0.08733802,10070942576,0.004886922,-0.004886922,0.0012217305,10070942576,52.601562
10070951662,-0.97866446,-10.039087,0.09810573,10070951662,0.005497787,-0.0061086523,0.00061086525,10070951662,52.625
10070960756,-0.98584294,-10.040284,0.101694964,10070960756,0.0061086523,-0.004886922,0.0018325958,10070960756,52.625
10070969838,-0.9762716,-10.033105,0.1052842,10070969838,0.004276057,-0.0036651916,0.0012217305,10070969838,52.63672
10070978919,-0.9738788,-10.030712,0.096909314,10070978919,0.004886922,-0.0030543262,0.0018325958,10070978919,52.63672
10070987997,-0.9870393,-10.031909,0.09451649,10070987997,0.004886922,-0.0036651916,0.0018325958,10070987997,52.628906
10070997088,-0.9738788,-10.037891,0.09212367,10070997088,0.004276057,-0.004886922,0.00061086525,10070997088,52.628906
10071006176,-0.9762716,-10.029516,0.10049855,10071006176,0.004886922,-0.0036651916,0.00061086525,10071006176,52.609375
10071015248,-0.97866446,-10.028319,0.08973085,10071015248,0.0036651916,-0.005497787,0.0012217305,10071015248,52.609375
10071024344,-0.9798609,-10.030712,0.09092726,10071024344,0.0030543262,-0.004276057,0.0012217305,10071024344,52.578125
10071033411,-0.9702896,-10.034302,0.09571291,10071033411,0.004276057,-0.004276057,0.0012217305,10071033411,52.578125
10071042506,-0.9774681,-10.027123,0.09451649,10071042506,0.004276057,-0.004276057,0.0012217305,10071042506,52.617188
10071051594,-0.97866446,-10.023534,0.09571291,10071051594,0.004886922,-0.0036651916,0.0012217305,10071051594,52.617188
10071060682,-0.9774681,-10.035499,0.09092726,10071060682,0.004886922,-0.004276057,0.00061086525,10071060682,52.609375
10071069764,-0.9774681,-10.035499,0.1160519,10071069764,0.005497787,-0.004276057,0.0012217305,10071069764,52.609375
10071078833,-0.9810573,-10.04148,0.104087785,10071078833,0.004886922,-0.004276057,0.0012217305,10071078833,52.65625
10071087930,-0.9762716,-10.036695,0.10289137,10071087930,0.004276057,-0.0030543262,0.0012217305,10071087930,52.65625
10071097014,-0.9762716,-10.029516,0.11246266,10071097014,0.004276057,-0.0036651916,0.002443461,10071097014,52.61328
10071106085,-0.971486,-10.039087,0.106480606,10071106085,0.005497787,-0.0030543262,0,10071106085,52.61328
10071115179,-0.97507524,-10.034302,0.10767702,10071115179,0.005497787,-0.002443461,0.00061086525,10071115179,52.64453
10071124269,-0.9822537,-10.034302,0.11365908,10071124269,0.0036651916,-0.0036651916,0.0012217305,10071124269,52.64453
10071133341,-0.9846465,-10.039087,0.111266255,10071133341,0.004276057,-0.004276057,0.00061086525,10071133341,52.61328
10071142433,-0.9738788,-10.030712,0.106480606,10071142433,0.0036651916,-0.004276057,0.00061086525,10071142433,52.61328
10071151507,-0.96909314,-10.034302,0.1160519,10071151507,0.004276057,-0.004276057,0.0018325958,10071151507,52.609375
10071160589,-0.98584294,-10.040284,0.10767702,10071160589,0.005497787,-0.004276057,0.00061086525,10071160589,52.609375
10071169671,-0.9810573,-10.04148,0.11485548,10071169671,0.005497787,-0.004886922,0.0012217305,10071169671,52.609375
10071178755,-0.97866446,-10.034302,0.106480606,10071178755,0.005497787,-0.004886922,0.0012217305,10071178755,52.609375
10071187846,-0.9846465,-10.025927,0.11006984,10071187846,0.005497787,-0.004276057,0.0012217305,10071187846,52.625
10071196923,-0.9822537,-10.030712,0.10887343,10071196923,0.004886922,-0.004276057,0.0018325958,10071196923,52.625
10071206028,-0.97507524,-10.033105,0.106480606,10071206028,0.005497787,-0.004886922,0.0012217305,10071206028,52.617188
10071215099,-0.97507524,-10.033105,0.106480606,10071215099,0.0036651916,-0.004886922,0.0012217305,10071215099,52.617188
10071224190,-0.9726824,-10.021141,0.111266255,10071224190,0.0036651916,-0.004276057,0.00061086525,10071224190,52.59375
10071233270,-0.9798609,-10.030712,0.10289137,10071233270,0.004886922,-0.0036651916,0.00061086525,10071233270,52.59375
10071242361,-0.9762716,-10.028319,0.09571291,10071242361,0.004276057,-0.005497787,0.0012217305,10071242361,52.63672
10071251439,-0.96909314,-10.037891,0.10289137,10071251439,0.004886922,-0.004276057,0.00061086525,10071251439,52.63672
10071260530,-0.9726824,-10.031909,0.101694964,10071260530,0.004276057,-0.0036651916,0.0012217305,10071260530,52.621094
10071269612,-0.9882358,-10.029516,0.09212367,10071269612,0.0030543262,-0.0036651916,0.0018325958,10071269612,52.621094
10071278694,-0.9846465,-10.027123,0.10767702,10071278694,0.004886922,-0.004886922,0.0018325958,10071278694,52.625
10071287781,-0.9798609,-10.04507,0.101694964,10071287781,0.005497787,-0.004886922,0.0012217305,10071287781,52.625
10071296848,-0.9822537,-10.040284,0.10887343,10071296848,0.004886922,-0.0036651916,0.0012217305,10071296848,52.64453
10071305942,-0.9846465,-10.037891,0.10887343,10071305942,0.004276057,-0.004276057,0.0012217305,10071305942,52.64453
10071315030,-0.98943216,-10.028319,0.09571291,10071315030,0.004886922,-0.004886922,0.00061086525,10071315030,52.632812
10071324121,-0.971486,-10.035499,0.09930214,10071324121,0.004886922,-0.0061086523,0.00061086525,10071324121,52.632812
10071333194,-0.9702896,-10.033105,0.10049855,10071333194,0.005497787,-0.004886922,0.00061086525,10071333194,52.621094
10071342272,-0.9822537,-10.025927,0.11006984,10071342272,0.004276057,-0.0061086523,0.0018325958,10071342272,52.621094
10071351359,-0.9762716,-10.034302,0.11006984,10071351359,0.004276057,-0.005497787,0.0018325958,10071351359,52.628906
10071360442,-0.9762716,-10.035499,0.09092726,10071360442,0.004276057,-0.005497787,0.0012217305,10071360442,52.628906
10071369525,-0.9774681,-10.028319,0.1052842,10071369525,0.004276057,-0.004276057,0.0012217305,10071369525,52.632812
10071378613,-0.9774681,-10.024731,0.09571291,10071378613,0.004276057,-0.0061086523,0.00061086525,10071378613,52.632812
10071387710,-0.97866446,-10.034302,0.083748795,10071387710,0.002443461,-0.004276057,0.0012217305,10071387710,52.621094
10071396792,-0.9834501,-10.035499,0.09212367,10071396792,0.004276057,-0.004886922,0.00061086525,10071396792,52.621094
10071405871,-0.9846465,-10.029516,0.09332009,10071405871,0.004276057,-0.004886922,0.0012217305,10071405871,52.609375
10071414957,-0.9762716,-10.033105,0.1052842,10071414957,0.004276057,-0.0036651916,0,10071414957,52.609375
10071424046,-0.9774681,-10.030712,0.096909314,10071424046,0.004276057,-0.004886922,0.0012217305,10071424046,52.585938
10071433113,-0.9810573,-10.037891,0.09212367,10071433113,0.004276057,-0.004886922,0.0012217305,10071433113,52.585938
10071442211,-0.9846465,-10.039087,0.083748795,10071442211,0.004886922,-0.004276057,0.0018325958,10071442211,52.664062
10071451284,-0.9942178,-10.033105,0.09930214,10071451284,0.004276057,-0.004276057,0.0012217305,10071451284,52.664062
10071460366,-0.9834501,-10.030712,0.096909314,10071460366,0.004276057,-0.0061086523,0.002443461,10071460366,52.683594
10071469448,-0.96430755,-10.028319,0.09332009,10071469448,0.0036651916,-0.004886922,0.0012217305,10071469448,52.683594
10071478548,-0.9738788,-10.039087,0.101694964,10071478548,0.004886922,-0.0030543262,0.0012217305,10071478548,52.597656
10071487626,-0.9882358,-10.042677,0.09092726,10071487626,0.004886922,-0.002443461,0.002443461,10071487626,52.597656
10071496701,-0.9738788,-10.035499,0.09451649,10071496701,0.004276057,-0.004276057,0.002443461,10071496701,52.63672
10071505782,-0.9798609,-10.033105,0.09092726,10071505782,0.004276057,-0.0036651916,0.0012217305,10071505782,52.63672
10071514872,-0.98943216,-10.034302,0.09930214,10071514872,0.004886922,-0.002443461,0.0012217305,10071514872,52.628906
10071523955,-0.9810573,-10.034302,0.10049855,10071523955,0.0036651916,-0.0036651916,0.0012217305,10071523955,52.628906
10071533054,-0.97507524,-10.029516,0.104087785,10071533054,0.0030543262,-0.004276057,0.0012217305,10071533054,52.671875
10071542134,-0.97507524,-10.035499,0.09930214,10071542134,0.004276057,-0.004886922,0.00061086525,10071542134,52.671875
10071551207,-0.9822537,-10.034302,0.104087785,10071551207,0.004276057,-0.0030543262,0.0012217305,10071551207,52.640625
10071560307,-0.9810573,-10.039087,0.11246266,10071560307,0.005497787,-0.0036651916,0.0018325958,10071560307,52.640625
10071569389,-0.9774681,-10.031909,0.106480606,10071569389,0.005497787,-0.004276057,0.0012217305,10071569389,52.640625
10071578466,-0.9870393,-10.028319,0.10289137,10071578466,0.004886922,-0.0036651916,0.0012217305,10071578466,52.640625
10071587548,-0.9762716,-10.025927,0.10767702,10071587548,0.004886922,-0.0036651916,0.00061086525,10071587548,52.628906
10071596636,-0.9798609,-10.029516,0.11365908,10071596636,0.0036651916,-0.004276057,0.00061086525,10071596636,52.628906
10071605727,-0.991825,-10.034302,0.10049855,10071605727,0.004886922,-0.004886922,0.0018325958,10071605727,52.625
10071614803,-0.9762716,-10.040284,0.104087785,10071614803,0.004276057,-0.004276057,0.00061086525,10071614803,52.625
10071623882,-0.97507524,-10.027123,0.11724831,10071623882,0.004276057,-0.004276057,0.0018325958,10071623882,52.628906
10071632973,-0.98584294,-10.029516,0.104087785,10071632973,0.004886922,-0.004276057,0.0012217305,10071632973,52.628906
10071642064,-0.9774681,-10.037891,0.10767702,10071642064,0.004886922,-0.004886922,0.0012217305,10071642064,52.632812
10071651136,-0.98584294,-10.043873,0.09212367,10071651136,0.004886922,-0.004276057,0.0012217305,10071651136,52.632812
10071660213,-0.9667004,-10.025927,0.10289137,10071660213,0.004276057,-0.004886922,0.00061086525,10071660213,52.58203
10071669295,-0.9810573,-10.031909,0.10767702,10071669295,0.004276057,-0.005497787,0.0018325958,10071669295,52.58203
10071678396,-0.9738788,-10.033105,0.11006984,10071678396,0.004886922,-0.005497787,0.0018325958,10071678396,52.63672
10071687467,-0.9762716,-10.030712,0.10049855,10071687467,0.004886922,-0.004886922,0.00061086525,10071687467,52.63672
10071696563,-0.9822537,-10.025927,0.106480606,10071696563,0.004886922,-0.005497787,0.00061086525,10071696563,52.589844
10071705651,-0.97507524,-10.036695,0.10767702,10071705651,0.0030543262,-0.0036651916,0.0012217305,10071705651,52.589844
10071714734,-0.991825,-10.037891,0.11246266,10071714734,0.0036651916,-0.0036651916,0.0018325958,10071714734,52.628906
10071723820,-0.97866446,-10.031909,0.101694964,10071723820,0.004886922,-0.004276057,0.0012217305,10071723820,52.628906
10071732886,-0.9762716,-10.031909,0.1052842,10071732886,0.004886922,-0.004886922,0.0012217305,10071732886,52.589844
10071741970,-0.9798609,-10.034302,0.10289137,10071741970,0.0036651916,-0.004276057,0.00061086525,10071741970,52.589844
10071751053,-0.9798609,-10.036695,0.106480606,10071751053,0.0036651916,-0.004276057,0.0012217305,10071751053,52.679688
10071760141,-0.9822537,-10.036695,0.101694964,10071760141,0.004886922,-0.0036651916,0.00061086525,10071760141,52.679688
10071769223,-0.9774681,-10.028319,0.101694964,10071769223,0.0036651916,-0.004276057,0.0012217305,10071769223,52.57422
10071778308,-0.9870393,-10.029516,0.10049855,10071778308,0.0036651916,-0.0036651916,0.0018325958,10071778308,52.57422
10071787405,-0.9738788,-10.031909,0.101694964,10071787405,0.004886922,-0.005497787,0.0012217305,10071787405,52.625
10071796492,-0.97507524,-10.04148,0.10767702,10071796492,0.004276057,-0.004276057,0.0012217305,10071796492,52.625
10071805558,-0.9810573,-10.028319,0.09332009,10071805558,0.004276057,-0.004276057,0,10071805558,52.617188
10071814653,-0.9834501,-10.025927,0.09930214,10071814653,0.005497787,-0.004886922,0.0012217305,10071814653,52.617188
10071823737,-0.9882358,-10.022338,0.10289137,10071823737,0.0036651916,-0.005497787,0.0012217305,10071823737,52.617188
10071832810,-0.9822537,-10.034302,0.09332009,10071832810,0.004276057,-0.004886922,0.00061086525,10071832810,52.617188
10071841899,-0.9738788,-10.031909,0.09212367,10071841899,0.004276057,-0.004276057,0.0018325958,10071841899,52.63672
10071850991,-0.9762716,-10.037891,0.09810573,10071850991,0.004276057,-0.004886922,0.0012217305,10071850991,52.63672
10071860217,-0.9774681,-10.042677,0.096909314,10071860217,0.004276057,-0.004276057,0.0012217305,10071860217,52.597656
10071869158,-0.9774681,-10.042677,0.10049855,10071869158,0.004276057,-0.004886922,0.0018325958,10071869158,52.597656
10071878250,-0.9798609,-10.036695,0.09810573,10071878250,0.004276057,-0.004886922,0.00061086525,10071878250,52.617188
10071887326,-0.9702896,-10.035499,0.09092726,10071887326,0.004276057,-0.004886922,0.0012217305,10071887326,52.617188
10071896418,-0.9798609,-10.030712,0.11365908,10071896418,0.004276057,-0.004886922,0.00061086525,10071896418,52.617188
10071905498,-0.9834501,-10.029516,0.09212367,10071905498,0.004276057,-0.004276057,0.00061086525,10071905498,52.617188
10071914585,-0.9774681,-10.035499,0.09810573,10071914585,0.004886922,-0.0036651916,0.00061086525,10071914585,52.63672
10071923672,-0.9882358,-10.042677,0.09451649,10071923672,0.004886922,-0.0036651916,0.00061086525,10071923672,52.63672
10071932757,-0.9798609,-10.034302,0.09332009,10071932757,0.005497787,-0.0030543262,0.0012217305,10071932757,52.61328
10071941821,-0.9702896,-10.024731,0.101694964,10071941821,0.0061086523,-0.0030543262,0.0012217305,10071941821,52.61328
10071950907,-0.97507524,-10.033105,0.09930214,10071950907,0.0036651916,-0.002443461,0.0012217305,10071950907,52.625
10071959989,-0.9774681,-10.027123,0.10049855,10071959989,0.004276057,-0.0036651916,0.0012217305,10071959989,52.625
10071969071,-0.9738788,-10.034302,0.09930214,10071969071,0.004886922,-0.004276057,0.00061086525,10071969071,52.63672
10071978175,-0.9774681,-10.030712,0.09571291,10071978175,0.004276057,-0.004276057,0.00061086525,10071978175,52.63672
10071987237,-0.9762716,-10.037891,0.09212367,10071987237,0.004886922,-0.004886922,0.00061086525,10071987237,52.628906
10071996331,-0.98584294,-10.029516,0.09930214,10071996331,0.004886922,-0.004886922,0.0018325958,10071996331,52.628906
10072005415,-0.9738788,-10.029516,0.09810573,10072005415,0.004886922,-0.004886922,0.00061086525,10072005415,52.628906
10072014511,-0.9822537,-10.024731,0.10289137,10072014511,0.004886922,-0.0061086523,0.00061086525,10072014511,52.628906
10072023596,-0.9798609,-10.035499,0.1052842,10072023596,0.004886922,-0.004276057,0.0012217305,10072023596,52.632812
10072032660,-0.9738788,-10.040284,0.10289137,10072032660,0.004276057,-0.0036651916,0,10072032660,52.632812
10072041750,-0.9882358,-10.034302,0.09930214,10072041750,0.005497787,-0.0036651916,0.00061086525,10072041750,52.66797
10072050846,-0.9906286,-10.036695,0.101694964,10072050846,0.005497787,-0.004276057,0.00061086525,10072050846,52.66797
10072060065,-0.9762716,-10.043873,0.10289137,10072060065,0.004276057,-0.0036651916,0.00061086525,10072060065,52.61328
10072069006,-0.9726824,-10.029516,0.10289137,10072069006,0.004276057,-0.004276057,0.0012217305,10072069006,52.61328
10072078083,-0.98584294,-10.034302,0.10049855,10072078083,0.004276057,-0.0036651916,0.0018325958,10072078083,52.617188
10072087167,-0.97507524,-10.035499,0.09930214,10072087167,0.004886922,-0.004276057,0.0018325958,10072087167,52.617188
10072096268,-0.9738788,-10.028319,0.104087785,10072096268,0.004886922,-0.004886922,0.0012217305,10072096268,52.585938
10072105337,-0.9798609,-10.034302,0.1052842,10072105337,0.004276057,-0.004886922,0.0018325958,10072105337,52.585938
10072114423,-0.97866446,-10.030712,0.11485548,10072114423,0.004886922,-0.004276057,0.002443461,10072114423,52.609375
10072123507,-0.971486,-10.035499,0.101694964,10072123507,0.004886922,-0.004886922,0.00061086525,10072123507,52.609375
