accelerationTimestamp,accelerationX,accelerationY,accelerationZ,angularSpeedTimestamp,angularSpeedX,angularSpeedY,angularSpeedZ,temperatureTimestamp,temperature
10110934573,-1.253839,-9.944571,0.23449662,10110934573,0.002443461,-0.008552114,0.002443461,10110934573,50.921875
10110936812,-1.268196,-9.944571,0.22013968,10110936812,0.0012217305,-0.007330383,0.002443461,10110936812,50.921875
10110939051,-1.2394822,-9.939785,0.22013968,10110939051,0.0012217305,-0.007330383,0.002443461,10110939051,50.921875
10110941290,-1.2251252,-9.954143,0.21535404,10110941290,0.002443461,-0.0061086523,0.0036651916,10110941290,50.921875
10110943529,-1.2394822,-9.949356,0.22492532,10110943529,0.0036651916,-0.007330383,0.0036651916,10110943529,50.921875
10110945768,-1.2442678,-9.930214,0.22492532,10110945768,0.0036651916,-0.008552114,0.0036651916,10110945768,50.910156
10110948007,-1.253839,-9.944571,0.21535404,10110948007,0.0036651916,-0.004886922,0.0036651916,10110948007,50.910156
10110950246,-1.2586247,-9.949356,0.22971097,10110950246,0,-0.0061086523,0.0036651916,10110950246,50.910156
10110952485,-1.2442678,-9.954143,0.22492532,10110952485,0.0012217305,-0.007330383,0.002443461,10110952485,50.910156
10110954744,-1.2346965,-9.939785,0.22013968,10110954744,0,-0.007330383,0.002443461,10110954744,50.910156
10110956982,-1.2586247,-9.944571,0.22971097,10110956982,0,-0.0036651916,0.004886922,10110956982,50.910156
10110959221,-1.2586247,-9.934999,0.22971097,10110959221,0,-0.0036651916,0.002443461,10110959221,50.910156
10110961460,-1.2490535,-9.958928,0.23449662,10110961460,0,-0.0061086523,0.004886922,10110961460,50.910156
10110963699,-1.2346965,-9.954143,0.22013968,10110963699,0,-0.009773844,0.0036651916,10110963699,50.88672
10110965942,-1.2394822,-9.944571,0.22971097,10110965942,0.002443461,-0.0061086523,0.0036651916,10110965942,50.88672
10110968181,-1.2251252,-9.944571,0.22971097,10110968181,0.004886922,-0.004886922,0.002443461,10110968181,50.88672
10110970419,-1.2394822,-9.939785,0.2105684,10110970419,0.0036651916,-0.0061086523,0.004886922,10110970419,50.88672
10110972658,-1.2394822,-9.939785,0.22492532,10110972658,0.004886922,-0.004886922,0.0036651916,10110972658,50.88672
10110974892,-1.2442678,-9.925428,0.23928227,10110974892,0.0061086523,-0.0061086523,0.004886922,10110974892,50.88672
10110977131,-1.2203395,-9.954143,0.22971097,10110977131,0.002443461,-0.009773844,0.002443461,10110977131,50.88672
10110979370,-1.2251252,-9.939785,0.21535404,10110979370,-0.002443461,-0.0036651916,0.002443461,10110979370,50.88672
10110981609,-1.2299109,-9.939785,0.2105684,10110981609,0,-0.0061086523,0.002443461,10110981609,50.88672
10110983847,-1.2155539,-9.944571,0.21535404,10110983847,0.0012217305,-0.0061086523,0.0036651916,10110983847,50.88672
10110986106,-1.2155539,-9.954143,0.2105684,10110986106,0.002443461,-0.004886922,0.002443461,10110986106,50.88672
10110988345,-1.2251252,-9.963714,0.22013968,10110988345,0,-0.0061086523,0.0012217305,10110988345,50.88672
10110990584,-1.2346965,-9.939785,0.22971097,10110990584,0,-0.004886922,0.0036651916,10110990584,50.88672
10110992822,-1.2442678,-9.939785,0.23449662,10110992822,0.004886922,-0.0036651916,0.0012217305,10110992822,50.88672
10110995080,-1.2394822,-9.944571,0.22013968,10110995080,0.0012217305,-0.004886922,0.0036651916,10110995080,50.88672
10110997319,-1.2442678,-9.934999,0.23449662,10110997319,-0.0012217305,-0.0061086523,0.0036651916,10110997319,50.88672
10110999557,-1.2299109,-9.949356,0.22492532,10110999557,0.0012217305,-0.004886922,0.002443461,10110999557,50.92578
10111001796,-1.2346965,-9.949356,0.2105684,10111001796,0.002443461,-0.002443461,0.0036651916,10111001796,50.92578
10111004438,-1.2490535,-9.930214,0.22013968,10111004438,0.0012217305,-0.008552114,0.0012217305,10111004438,50.92578
10111006281,-1.2203395,-9.934999,0.22492532,10111006281,-0.0012217305,-0.0012217305,0.0036651916,10111006281,50.92578
10111008520,-1.2490535,-9.944571,0.22013968,10111008520,-0.0012217305,-0.002443461,0.0012217305,10111008520,50.92578
10111010758,-1.2394822,-9.954143,0.23928227,10111010758,0,-0.0061086523,0.0012217305,10111010758,50.92578
10111012997,-1.2155539,-9.930214,0.2009971,10111012997,0.004886922,-0.004886922,0.0036651916,10111012997,50.92578
10111015230,-1.2490535,-9.954143,0.22971097,10111015230,0.004886922,-0.004886922,0.0036651916,10111015230,50.92578
10111017469,-1.2346965,-9.939785,0.25842485,10111017469,0.0036651916,-0.0036651916,0.002443461,10111017469,50.875
10111019708,-1.2107682,-9.925428,0.22013968,10111019708,0.004886922,-0.007330383,0.002443461,10111019708,50.875
10111021947,-1.2394822,-9.963714,0.22013968,10111021947,0,-0.0036651916,0.002443461,10111021947,50.875
10111024452,-1.2442678,-9.944571,0.22971097,10111024452,-0.0012217305,-0.002443461,0.002443461,10111024452,50.875
10111026435,-1.2251252,-9.930214,0.23449662,10111026435,0.0012217305,-0.0061086523,0.0036651916,10111026435,50.875
10111028674,-1.2299109,-9.97807,0.22971097,10111028674,0.002443461,-0.004886922,0.0036651916,10111028674,50.875
10111030912,-1.2490535,-9.939785,0.23449662,10111030912,0.0012217305,-0.002443461,0.002443461,10111030912,50.875
10111033151,-1.2490535,-9.915857,0.23928227,10111033151,0.002443461,-0.0061086523,0.0036651916,10111033151,50.875
10111035395,-1.2490535,-9.949356,0.2440679,10111035395,0.0012217305,-0.008552114,0.004886922,10111035395,50.914062
10111037634,-1.2346965,-9.934999,0.23449662,10111037634,-0.0012217305,-0.004886922,0.0061086523,10111037634,50.914062
10111039872,-1.2586247,-9.920643,0.22971097,10111039872,0,-0.0036651916,0.0036651916,10111039872,50.914062
10111042111,-1.2394822,-9.963714,0.21535404,10111042111,0,-0.004886922,0.0036651916,10111042111,50.914062
10111044434,-1.2346965,-9.939785,0.2440679,10111044434,0.0036651916,-0.004886922,0.002443461,10111044434,50.914062
10111046603,-1.2394822,-9.934999,0.23449662,10111046603,0.002443461,-0.002443461,0.002443461,10111046603,50.914062
10111048842,-1.2586247,-9.954143,0.23449662,10111048842,0.0036651916,-0.008552114,0.002443461,10111048842,50.914062
10111051081,-1.2394822,-9.949356,0.23928227,10111051081,0.0036651916,-0.0036651916,0.0036651916,10111051081,50.914062
10111053320,-1.2490535,-9.944571,0.2105684,10111053320,0.002443461,-0.0036651916,0.0036651916,10111053320,50.964844
10111055572,-1.2634103,-9.949356,0.22492532,10111055572,0.0036651916,-0.007330383,0.0036651916,10111055572,50.964844
10111057810,-1.2394822,-9.939785,0.22492532,10111057810,0.002443461,-0.0061086523,0.002443461,10111057810,50.964844
10111060049,-1.2442678,-9.968499,0.23449662,10111060049,0.002443461,-0.002443461,0.0012217305,10111060049,50.964844
10111062288,-1.2442678,-9.963714,0.22013968,10111062288,0.002443461,-0.0036651916,0.0012217305,10111062288,50.964844
10111064542,-1.2346965,-9.944571,0.23449662,10111064542,0.002443461,-0.004886922,0.0036651916,10111064542,50.964844
10111066781,-1.2490535,-9.930214,0.22971097,10111066781,0.002443461,-0.0036651916,0.002443461,10111066781,50.964844
10111069020,-1.2634103,-9.944571,0.2440679,10111069020,0.002443461,-0.004886922,0.0036651916,10111069020,50.964844
10111071259,-1.2107682,-9.939785,0.23928227,10111071259,0.004886922,-0.0061086523,0.0036651916,10111071259,50.816406
10111073498,-1.2394822,-9.939785,0.2536392,10111073498,0.002443461,-0.0061086523,0.0012217305,10111073498,50.816406
10111075735,-1.2394822,-9.930214,0.23928227,10111075735,0.004886922,-0.008552114,0.002443461,10111075735,50.816406
10111077974,-1.2346965,-9.944571,0.22492532,10111077974,0,-0.0061086523,0.0012217305,10111077974,50.816406
10111080212,-1.2490535,-9.930214,0.22971097,10111080212,0.0012217305,-0.0036651916,0.0036651916,10111080212,50.816406
10111082451,-1.2490535,-9.939785,0.2440679,10111082451,0.0012217305,-0.004886922,0.0012217305,10111082451,50.816406
10111084700,-1.2155539,-9.939785,0.23928227,10111084700,0.0012217305,-0.007330383,0.002443461,10111084700,50.816406
10111086938,-1.2442678,-9.958928,0.2536392,10111086938,0.004886922,-0.0061086523,0.002443461,10111086938,50.816406
10111089177,-1.2346965,-9.949356,0.2440679,10111089177,0.0036651916,-0.0061086523,0.0036651916,10111089177,50.953125
10111091416,-1.2442678,-9.934999,0.25842485,10111091416,0,-0.004886922,0.0036651916,10111091416,50.953125
10111093655,-1.253839,-9.958928,0.2440679,10111093655,0.002443461,-0.004886922,0.0036651916,10111093655,50.953125
10111095897,-1.253839,-9.944571,0.25842485,10111095897,0.0012217305,-0.004886922,0.0036651916,10111095897,50.953125
10111098136,-1.2586247,-9.954143,0.23449662,10111098136,0.0012217305,-0.007330383,0.002443461,10111098136,50.953125
10111100375,-1.2586247,-9.958928,0.23449662,10111100375,0.0012217305,-0.0036651916,0.0036651916,10111100375,50.953125
10111102614,-1.253839,-9.934999,0.22971097,10111102614,0.002443461,-0.0061086523,0.0012217305,10111102614,50.953125
10111104871,-1.253839,-9.939785,0.2440679,10111104871,0.002443461,-0.007330383,0.002443461,10111104871,50.953125
10111107110,-1.282553,-9.949356,0.22971097,10111107110,0.002443461,-0.0061086523,0.002443461,10111107110,50.92578
10111109349,-1.2490535,-9.963714,0.23449662,10111109349,0.002443461,-0.004886922,0.002443461,10111109349,50.92578
10111111587,-1.2586247,-9.939785,0.23928227,10111111587,0,-0.008552114,0.0036651916,10111111587,50.92578
10111113826,-1.2442678,-9.954143,0.22971097,10111113826,0.0036651916,-0.0036651916,0.0012217305,10111113826,50.92578
10111116061,-1.2251252,-9.944571,0.22013968,10111116061,0,-0.0036651916,0.002443461,10111116061,50.92578
10111118300,-1.2011969,-9.939785,0.23449662,10111118300,0.0012217305,-0.004886922,0.004886922,10111118300,50.92578
10111120539,-1.2251252,-9.944571,0.2536392,10111120539,0.0012217305,-0.002443461,0.002443461,10111120539,50.92578
10111122778,-1.2251252,-9.954143,0.2105684,10111122778,0.002443461,-0.0036651916,0.0036651916,10111122778,50.92578
10111125037,-1.2346965,-9.934999,0.22971097,10111125037,0.0012217305,-0.009773844,0.004886922,10111125037,50.941406
10111127276,-1.2155539,-9.954143,0.23449662,10111127276,0.0012217305,-0.004886922,0.004886922,10111127276,50.941406
10111129515,-1.2059826,-9.944571,0.22971097,10111129515,0.0036651916,-0.0036651916,0.002443461,10111129515,50.941406
10111131754,-1.2346965,-9.963714,0.24885355,10111131754,0.0012217305,-0.0061086523,0.002443461,10111131754,50.941406
10111134437,-1.2394822,-9.954143,0.22013968,10111134437,0.002443461,-0.0061086523,0.002443461,10111134437,50.941406
10111136233,-1.2299109,-9.954143,0.22971097,10111136233,0.002443461,-0.0036651916,0.002443461,10111136233,50.941406
10111138472,-1.2394822,-9.949356,0.23449662,10111138472,0.0036651916,-0.004886922,0.0012217305,10111138472,50.941406
10111140711,-1.2394822,-9.949356,0.23449662,10111140711,0.002443461,-0.002443461,0.0036651916,10111140711,50.941406
10111142950,-1.2442678,-9.939785,0.22492532,10111142950,0.0012217305,-0.0061086523,0.0036651916,10111142950,50.902344
10111145201,-1.2346965,-9.934999,0.22971097,10111145201,0.002443461,-0.002443461,0.0036651916,10111145201,50.902344
10111147440,-1.2394822,-9.934999,0.22971097,10111147440,0.002443461,-0.0061086523,0.004886922,10111147440,50.902344
10111149679,-1.2490535,-9.930214,0.22013968,10111149679,0.002443461,-0.008552114,0.004886922,10111149679,50.902344
10111151918,-1.2346965,-9.954143,0.2440679,10111151918,0.0012217305,-0.0061086523,0.004886922,10111151918,50.902344
10111154402,-1.2586247,-9.954143,0.22971097,10111154402,0.0012217305,-0.004886922,0.004886922,10111154402,50.902344
10111156408,-1.253839,-9.934999,0.24885355,10111156408,0,-0.004886922,0.0061086523,10111156408,50.902344
10111158647,-1.253839,-9.920643,0.22492532,10111158647,0.002443461,-0.0036651916,0.004886922,10111158647,50.902344
10111160886,-1.253839,-9.954143,0.2440679,10111160886,0.0036651916,-0.0061086523,0.004886922,10111160886,50.91797
10111163125,-1.253839,-9.949356,0.24885355,10111163125,0.002443461,-0.0036651916,0.0036651916,10111163125,50.91797
10111165382,-1.2346965,-9.949356,0.24885355,10111165382,0.004886922,-0.008552114,0.0036651916,10111165382,50.91797
10111167621,-1.2394822,-9.939785,0.24885355,10111167621,0.002443461,-0.004886922,0.002443461,10111167621,50.91797
10111169860,-1.2346965,-9.944571,0.23449662,10111169860,0.0036651916,-0.0036651916,0.002443461,10111169860,50.91797
10111172098,-1.2490535,-9.944571,0.23449662,10111172098,0.002443461,-0.0061086523,0.0012217305,10111172098,50.91797
10111174401,-1.2394822,-9.939785,0.22971097,10111174401,0.0012217305,-0.0012217305,0,10111174401,50.91797
10111176570,-1.2203395,-9.944571,0.2440679,10111176570,0.0036651916,-0.0036651916,0.0036651916,10111176570,50.91797
10111178809,-1.2442678,-9.939785,0.23449662,10111178809,0.0012217305,-0.0061086523,0.004886922,10111178809,50.91797
10111181048,-1.253839,-9.949356,0.22971097,10111181048,0,-0.0061086523,0.0036651916,10111181048,50.91797
10111183287,-1.2346965,-9.949356,0.2440679,10111183287,0.0036651916,-0.0036651916,0.0036651916,10111183287,50.91797
10111185549,-1.2203395,-9.939785,0.22492532,10111185549,0.0036651916,-0.002443461,0.0036651916,10111185549,50.91797
10111187788,-1.2586247,-9.944571,0.22492532,10111187788,0.0012217305,-0.0036651916,0.0036651916,10111187788,50.91797
10111190027,-1.253839,-9.954143,0.23928227,10111190027,0.0036651916,-0.002443461,0.0036651916,10111190027,50.91797
10111192266,-1.2586247,-9.939785,0.23928227,10111192266,0.0036651916,-0.0036651916,0.0036651916,10111192266,50.91797
10111194496,-1.2490535,-9.939785,0.24885355,10111194496,0.002443461,-0.0036651916,0.0036651916,10111194496,50.91797
10111196735,-1.2442678,-9.954143,0.2440679,10111196735,0.002443461,0,0.004886922,10111196735,50.933594
10111198973,-1.2729816,-9.954143,0.2536392,10111198973,0.002443461,-0.004886922,0.0036651916,10111198973,50.933594
10111201212,-1.2490535,-9.944571,0.23928227,10111201212,0,-0.004886922,0.002443461,10111201212,50.933594
10111203451,-1.2490535,-9.954143,0.2536392,10111203451,0.002443461,0,0.0012217305,10111203451,50.933594
10111205709,-1.2490535,-9.944571,0.2632105,10111205709,0.0012217305,-0.002443461,0.0012217305,10111205709,50.933594
10111207947,-1.253839,-9.949356,0.2440679,10111207947,0,-0.004886922,0.002443461,10111207947,50.933594
10111210186,-1.2490535,-9.934999,0.2536392,10111210186,-0.0012217305,-0.0036651916,0.0036651916,10111210186,50.933594
10111212425,-1.253839,-9.949356,0.22971097,10111212425,-0.0012217305,-0.0036651916,0.0036651916,10111212425,50.933594
10111214680,-1.2203395,-9.930214,0.2536392,10111214680,0.0012217305,-0.004886922,0.002443461,10111214680,50.875
10111216919,-1.2155539,-9.939785,0.23928227,10111216919,0.0061086523,-0.004886922,0.0012217305,10111216919,50.875
10111219158,-1.2346965,-9.958928,0.24885355,10111219158,0.0036651916,-0.004886922,0.004886922,10111219158,50.875
10111221397,-1.2490535,-9.944571,0.2536392,10111221397,0.0012217305,-0.0036651916,0.0036651916,10111221397,50.875
10111223636,-1.253839,-9.939785,0.25842485,10111223636,-0.0012217305,-0.002443461,0.004886922,10111223636,50.875
10111225880,-1.2586247,-9.944571,0.23449662,10111225880,0,-0.004886922,0.004886922,10111225880,50.875
10111228119,-1.2586247,-9.949356,0.23928227,10111228119,0.0036651916,-0.007330383,0.002443461,10111228119,50.875
10111230357,-1.253839,-9.954143,0.2536392,10111230357,0.004886922,-0.004886922,0.004886922,10111230357,50.875
10111232596,-1.2346965,-9.954143,0.24885355,10111232596,0.004886922,-0.0036651916,0.0036651916,10111232596,50.90625
10111234834,-1.2586247,-9.944571,0.2440679,10111234834,0.002443461,-0.004886922,0.0061086523,10111234834,50.90625
10111237073,-1.2586247,-9.930214,0.23928227,10111237073,0,-0.002443461,0.0036651916,10111237073,50.90625
10111239312,-1.2394822,-9.920643,0.2632105,10111239312,0,-0.0061086523,0.002443461,10111239312,50.90625
10111241550,-1.2490535,-9.939785,0.2632105,10111241550,0,-0.002443461,0.0036651916,10111241550,50.90625
10111243789,-1.2586247,-9.939785,0.24885355,10111243789,0,-0.0036651916,0.002443461,10111243789,50.90625
10111246048,-1.2442678,-9.949356,0.25842485,10111246048,0,-0.0036651916,0.002443461,10111246048,50.90625
10111248286,-1.2442678,-9.934999,0.27756742,10111248286,0.0012217305,-0.004886922,0.0036651916,10111248286,50.90625
10111250525,-1.253839,-9.949356,0.2632105,10111250525,-0.0012217305,-0.004886922,0.002443461,10111250525,50.875
10111252764,-1.2490535,-9.954143,0.24885355,10111252764,0,-0.0012217305,0.0036651916,10111252764,50.875
10111254999,-1.2442678,-9.939785,0.25842485,10111254999,0.0036651916,-0.0036651916,0.0036651916,10111254999,50.875
10111257238,-1.2251252,-9.949356,0.24885355,10111257238,0,-0.002443461,0.002443461,10111257238,50.875
10111259477,-1.2299109,-9.939785,0.23449662,10111259477,0.0012217305,-0.004886922,0.002443461,10111259477,50.875
10111261716,-1.253839,-9.934999,0.2727818,10111261716,0.002443461,-0.0061086523,0.002443461,10111261716,50.875
10111264404,-1.2203395,-9.934999,0.23449662,10111264404,0.002443461,-0.002443461,0.002443461,10111264404,50.875
10111266200,-1.2346965,-9.949356,0.24885355,10111266200,0.002443461,-0.004886922,0.0012217305,10111266200,50.875
10111268439,-1.2251252,-9.944571,0.2632105,10111268439,0.004886922,-0.0036651916,0.002443461,10111268439,50.898438
10111270678,-1.2203395,-9.944571,0.2536392,10111270678,0.002443461,-0.004886922,0.002443461,10111270678,50.898438
10111272917,-1.2346965,-9.944571,0.2536392,10111272917,0,-0.0061086523,0.0036651916,10111272917,50.898438
10111275176,-1.253839,-9.949356,0.2632105,10111275176,0.002443461,-0.0061086523,0.0012217305,10111275176,50.898438
10111277415,-1.2394822,-9.949356,0.2536392,10111277415,0.004886922,-0.0061086523,0.004886922,10111277415,50.898438
10111279654,-1.2442678,-9.958928,0.2536392,10111279654,0.002443461,-0.007330383,0.0061086523,10111279654,50.898438
10111281893,-1.253839,-9.949356,0.2440679,10111281893,0.002443461,-0.004886922,0.0012217305,10111281893,50.898438
10111284394,-1.2490535,-9.954143,0.23449662,10111284394,0.0036651916,-0.0061086523,0.0012217305,10111284394,50.898438
10111286377,-1.2346965,-9.934999,0.2632105,10111286377,0.002443461,-0.004886922,0.0036651916,10111286377,50.882812
10111288616,-1.2586247,-9.925428,0.24885355,10111288616,0.0036651916,-0.007330383,0.0036651916,10111288616,50.882812
10111290854,-1.268196,-9.934999,0.26799613,10111290854,0.0036651916,-0.0036651916,0.002443461,10111290854,50.882812
10111293093,-1.2442678,-9.939785,0.25842485,10111293093,0.0036651916,-0.0061086523,0.002443461,10111293093,50.882812
10111295338,-1.2442678,-9.954143,0.25842485,10111295338,0.002443461,-0.008552114,0.004886922,10111295338,50.882812
10111297577,-1.2586247,-9.949356,0.2536392,10111297577,0.0036651916,-0.004886922,0.0036651916,10111297577,50.882812
10111299816,-1.2394822,-9.934999,0.2536392,10111299816,0.0036651916,-0.004886922,0.0036651916,10111299816,50.882812
10111302055,-1.2394822,-9.939785,0.24885355,10111302055,0.0012217305,-0.008552114,0.002443461,10111302055,50.882812
10111304403,-1.2346965,-9.930214,0.24885355,10111304403,0.0012217305,-0.0061086523,0.004886922,10111304403,50.871094
10111306549,-1.2442678,-9.939785,0.2536392,10111306549,0.002443461,-0.008552114,0.002443461,10111306549,50.871094
10111308788,-1.253839,-9.934999,0.2440679,10111308788,0.0012217305,-0.007330383,0.0036651916,10111308788,50.871094
10111311027,-1.2203395,-9.949356,0.2536392,10111311027,0.0036651916,-0.007330383,0.002443461,10111311027,50.871094
10111313265,-1.2442678,-9.954143,0.22013968,10111313265,0.0036651916,-0.0061086523,0.0036651916,10111313265,50.871094
10111315501,-1.2203395,-9.939785,0.24885355,10111315501,0,-0.007330383,0.002443461,10111315501,50.871094
10111317739,-1.2203395,-9.934999,0.23928227,10111317739,0,-0.0061086523,0.0036651916,10111317739,50.871094
10111319978,-1.2251252,-9.958928,0.2440679,10111319978,0.0012217305,-0.004886922,0.0036651916,10111319978,50.871094
10111322217,-1.2394822,-9.939785,0.22971097,10111322217,0,-0.008552114,0.002443461,10111322217,50.90625
10111324467,-1.253839,-9.949356,0.23928227,10111324467,0.0012217305,-0.007330383,0.0036651916,10111324467,50.90625
10111326706,-1.2442678,-9.954143,0.23928227,10111326706,0.0012217305,-0.0036651916,0.0036651916,10111326706,50.90625
10111328944,-1.2394822,-9.939785,0.23449662,10111328944,-0.0012217305,-0.007330383,0.0036651916,10111328944,50.90625
10111331183,-1.2442678,-9.954143,0.22971097,10111331183,0,-0.0061086523,0.002443461,10111331183,50.90625
10111333422,-1.2442678,-9.949356,0.23928227,10111333422,0.0012217305,-0.0061086523,0.0036651916,10111333422,50.90625
10111335675,-1.2299109,-9.939785,0.23928227,10111335675,0.0012217305,-0.0061086523,0.0012217305,10111335675,50.90625
10111337913,-1.2346965,-9.949356,0.22971097,10111337913,0.002443461,-0.007330383,0.0012217305,10111337913,50.90625
10111340152,-1.2299109,-9.949356,0.22013968,10111340152,0.0012217305,-0.008552114,0.0036651916,10111340152,50.902344
10111342391,-1.253839,-9.944571,0.23449662,10111342391,0,-0.010995574,0.0036651916,10111342391,50.902344
10111344625,-1.2586247,-9.944571,0.23449662,10111344625,0,-0.0061086523,0.0036651916,10111344625,50.902344
10111346864,-1.2394822,-9.944571,0.23449662,10111346864,0.0012217305,-0.004886922,0.0036651916,10111346864,50.902344
10111349103,-1.2442678,-9.949356,0.23928227,10111349103,0.0012217305,-0.0061086523,0.0061086523,10111349103,50.902344
10111351341,-1.2490535,-9.954143,0.23449662,10111351341,0.0012217305,-0.008552114,0.0036651916,10111351341,50.902344
10111353580,-1.2394822,-9.944571,0.22971097,10111353580,0.0012217305,-0.0061086523,0.002443461,10111353580,50.902344
10111355840,-1.2203395,-9.934999,0.22492532,10111355840,0.0012217305,-0.008552114,0.0036651916,10111355840,50.902344
10111358079,-1.2299109,-9.944571,0.23928227,10111358079,0.002443461,-0.010995574,0.002443461,10111358079,50.941406
10111360317,-1.2155539,-9.920643,0.22971097,10111360317,0,-0.008552114,0.0036651916,10111360317,50.941406
10111362556,-1.2155539,-9.930214,0.23449662,10111362556,0.002443461,-0.007330383,0.0036651916,10111362556,50.941406
10111364805,-1.2251252,-9.944571,0.23449662,10111364805,0.0012217305,-0.008552114,0.002443461,10111364805,50.941406
10111367043,-1.2251252,-9.939785,0.22492532,10111367043,0.0012217305,-0.004886922,0.002443461,10111367043,50.941406
10111369282,-1.2251252,-9.944571,0.2440679,10111369282,0.002443461,-0.0061086523,0.002443461,10111369282,50.941406
10111371521,-1.2203395,-9.944571,0.22971097,10111371521,0.0036651916,-0.007330383,0.0036651916,10111371521,50.941406
10111373760,-1.2442678,-9.949356,0.22492532,10111373760,0.002443461,-0.007330383,0.0061086523,10111373760,50.941406
10111376002,-1.2299109,-9.944571,0.22013968,10111376002,-0.0012217305,-0.0061086523,0.004886922,10111376002,50.89453
10111378241,-1.2346965,-9.954143,0.22492532,10111378241,0.002443461,-0.007330383,0.0036651916,10111378241,50.89453
10111380480,-1.2251252,-9.958928,0.22971097,10111380480,0.0012217305,-0.004886922,0.0036651916,10111380480,50.89453
10111382718,-1.2586247,-9.944571,0.2440679,10111382718,0,-0.0061086523,0.004886922,10111382718,50.89453
10111384975,-1.268196,-9.954143,0.23449662,10111384975,0,-0.007330383,0.0036651916,10111384975,50.89453
10111387214,-1.253839,-9.930214,0.22492532,10111387214,0.0036651916,-0.0061086523,0.004886922,10111387214,50.89453
10111389452,-1.2490535,-9.934999,0.22492532,10111389452,0.002443461,-0.004886922,0.004886922,10111389452,50.89453
10111391691,-1.2442678,-9.944571,0.22492532,10111391691,0.0036651916,-0.0061086523,0.0036651916,10111391691,50.89453
10111394404,-1.2203395,-9.939785,0.2440679,10111394404,0.0036651916,-0.004886922,0.002443461,10111394404,50.902344
10111396177,-1.2299109,-9.939785,0.22013968,10111396177,0.0012217305,-0.0036651916,0.002443461,10111396177,50.902344
10111398416,-1.2346965,-9.944571,0.22971097,10111398416,0.0012217305,-0.0036651916,0.0036651916,10111398416,50.902344
10111400655,-1.2442678,-9.954143,0.22492532,10111400655,0,-0.007330383,0.0036651916,10111400655,50.902344
10111402893,-1.2251252,-9.954143,0.21535404,10111402893,0.002443461,-0.0061086523,0.004886922,10111402893,50.902344
10111405148,-1.253839,-9.949356,0.22971097,10111405148,0.0036651916,-0.004886922,0.0036651916,10111405148,50.902344
10111407387,-1.2442678,-9.944571,0.24885355,10111407387,0.0036651916,-0.008552114,0.002443461,10111407387,50.902344
10111409625,-1.2490535,-9.944571,0.23449662,10111409625,0.0012217305,-0.0036651916,0.0012217305,10111409625,50.902344
10111411864,-1.2490535,-9.934999,0.22971097,10111411864,0.002443461,-0.0036651916,0.0036651916,10111411864,50.89453
10111414436,-1.2394822,-9.944571,0.22013968,10111414436,0.0012217305,-0.0061086523,0.0036651916,10111414436,50.89453
10111416349,-1.2299109,-9.954143,0.23928227,10111416349,0.0012217305,-0.008552114,0.002443461,10111416349,50.89453
10111418588,-1.2394822,-9.949356,0.23928227,10111418588,0.002443461,-0.0036651916,0.004886922,10111418588,50.89453
10111420826,-1.2490535,-9.934999,0.22492532,10111420826,0.0012217305,-0.0036651916,0.0036651916,10111420826,50.89453
10111423065,-1.2586247,-9.944571,0.22971097,10111423065,0.0036651916,-0.007330383,0.0036651916,10111423065,50.89453
10111425314,-1.2586247,-9.944571,0.21535404,10111425314,0.002443461,-0.004886922,0.0036651916,10111425314,50.89453
10111427553,-1.2442678,-9.954143,0.2105684,10111427553,0.002443461,-0.002443461,0.002443461,10111427553,50.89453
10111429792,-1.2394822,-9.944571,0.20578274,10111429792,0,-0.007330383,0.002443461,10111429792,50.89453
10111432031,-1.2394822,-9.949356,0.24885355,10111432031,0.0012217305,-0.004886922,0.002443461,10111432031,50.89453
10111434437,-1.2442678,-9.949356,0.22971097,10111434437,0.0012217305,-0.004886922,0.002443461,10111434437,50.89453
10111436513,-1.2490535,-9.954143,0.22971097,10111436513,-0.0012217305,-0.002443461,0.004886922,10111436513,50.89453
10111438752,-1.2394822,-9.949356,0.22492532,10111438752,0.002443461,-0.004886922,0.004886922,10111438752,50.89453
10111440991,-1.2346965,-9.939785,0.23449662,10111440991,0.0012217305,-0.0061086523,0.002443461,10111440991,50.89453
10111443229,-1.2203395,-9.934999,0.21535404,10111443229,0.002443461,-0.007330383,0.002443461,10111443229,50.89453
10111445468,-1.2394822,-9.944571,0.23449662,10111445468,0.002443461,-0.0061086523,0.0036651916,10111445468,50.89453
10111447706,-1.2490535,-9.930214,0.22013968,10111447706,0.002443461,-0.0061086523,0.004886922,10111447706,50.89453
10111449945,-1.2346965,-9.939785,0.23928227,10111449945,0.0012217305,-0.004886922,0.004886922,10111449945,50.89453
10111452184,-1.2442678,-9.958928,0.22492532,10111452184,0.0012217305,-0.004886922,0.002443461,10111452184,50.89453
10111454438,-1.2394822,-9.939785,0.23928227,10111454438,0.002443461,-0.007330383,0.0036651916,10111454438,50.89453
10111456676,-1.2155539,-9.934999,0.23449662,10111456676,0.002443461,-0.007330383,0.002443461,10111456676,50.89453
10111458915,-1.253839,-9.968499,0.22971097,10111458915,0.0036651916,-0.004886922,0.0036651916,10111458915,50.89453
10111461154,-1.2251252,-9.939785,0.25842485,10111461154,0.0012217305,-0.0036651916,0.0036651916,10111461154,50.89453
10111463393,-1.2203395,-9.954143,0.22971097,10111463393,0.0012217305,-0.002443461,0.0036651916,10111463393,50.89453
10111465632,-1.2394822,-9.954143,0.22971097,10111465632,0,-0.002443461,0.002443461,10111465632,50.910156
10111467871,-1.2394822,-9.949356,0.2440679,10111467871,0,-0.0061086523,0.0036651916,10111467871,50.910156
10111470110,-1.2490535,-9.949356,0.2536392,10111470110,0,-0.0036651916,0.002443461,10111470110,50.910156
10111472348,-1.268196,-9.954143,0.23449662,10111472348,0.0061086523,-0.0036651916,0.0036651916,10111472348,50.910156
10111474601,-1.253839,-9.944571,0.21535404,10111474601,0.004886922,-0.008552114,0.004886922,10111474601,50.910156
10111476840,-1.2346965,-9.944571,0.24885355,10111476840,0.0012217305,-0.008552114,0.0036651916,10111476840,50.910156
10111479078,-1.2442678,-9.949356,0.23928227,10111479078,0.002443461,-0.008552114,0.0036651916,10111479078,50.910156
10111481317,-1.253839,-9.930214,0.23928227,10111481317,0.0012217305,-0.004886922,0.0012217305,10111481317,50.910156
10111483556,-1.2394822,-9.925428,0.22971097,10111483556,0,-0.0012217305,0.002443461,10111483556,50.933594
10111485801,-1.2346965,-9.930214,0.23449662,10111485801,0.0012217305,-0.002443461,0.002443461,10111485801,50.933594
10111488040,-1.2442678,-9.949356,0.22013968,10111488040,0.004886922,-0.008552114,0.0061086523,10111488040,50.933594
10111490278,-1.2251252,-9.949356,0.22013968,10111490278,0.0036651916,-0.009773844,0.004886922,10111490278,50.933594
10111492517,-1.2490535,-9.944571,0.23449662,10111492517,0,-0.009773844,0.002443461,10111492517,50.933594
10111494775,-1.253839,-9.954143,0.2440679,10111494775,-0.0012217305,-0.0036651916,0.0012217305,10111494775,50.933594
10111497013,-1.2346965,-9.934999,0.22013968,10111497013,0.0012217305,0,0.0012217305,10111497013,50.933594
10111499252,-1.2346965,-9.958928,0.2105684,10111499252,0.0036651916,-0.004886922,0.0012217305,10111499252,50.933594
10111501491,-1.2059826,-9.949356,0.22492532,10111501491,0.0036651916,-0.008552114,0.0036651916,10111501491,50.910156
10111503730,-1.2203395,-9.934999,0.22971097,10111503730,0.0061086523,-0.007330383,0.0061086523,10111503730,50.910156
10111505973,-1.2490535,-9.930214,0.2440679,10111505973,0.0036651916,-0.008552114,0.0036651916,10111505973,50.910156
10111508212,-1.2394822,-9.939785,0.22492532,10111508212,-0.004886922,-0.007330383,0.0012217305,10111508212,50.910156
10111510451,-1.2299109,-9.944571,0.2105684,10111510451,0,-0.0012217305,-0.0012217305,10111510451,50.910156
10111512689,-1.2346965,-9.949356,0.22013968,10111512689,0.002443461,-0.002443461,0.0012217305,10111512689,50.910156
10111514939,-1.2299109,-9.954143,0.2105684,10111514939,0.0036651916,-0.009773844,0.0061086523,10111514939,50.910156
10111517178,-1.2490535,-9.944571,0.21535404,10111517178,0.0036651916,-0.009773844,0.0036651916,10111517178,50.910156
10111519416,-1.2394822,-9.930214,0.22971097,10111519416,0.002443461,-0.007330383,0.002443461,10111519416,50.867188
10111521655,-1.2394822,-9.944571,0.22971097,10111521655,0.0012217305,-0.0061086523,-0.0012217305,10111521655,50.867188
10111523894,-1.2586247,-9.944571,0.22492532,10111523894,0.0036651916,-0.0036651916,0.0012217305,10111523894,50.867188
10111526140,-1.2586247,-9.934999,0.23449662,10111526140,0.0012217305,-0.0036651916,0.0036651916,10111526140,50.867188
10111528379,-1.2586247,-9.939785,0.21535404,10111528379,0.0036651916,-0.007330383,0.004886922,10111528379,50.867188
10111530618,-1.2394822,-9.930214,0.22971097,10111530618,0.0036651916,-0.009773844,0.0036651916,10111530618,50.867188
10111532857,-1.2394822,-9.939785,0.20578274,10111532857,0,-0.007330383,0.002443461,10111532857,50.867188
10111535101,-1.2442678,-9.939785,0.22492532,10111535101,0,-0.002443461,0.002443461,10111535101,50.867188
10111537340,-1.2299109,-9.944571,0.22013968,10111537340,-0.0012217305,0,0.002443461,10111537340,50.929688
10111539579,-1.2394822,-9.939785,0.2009971,10111539579,0.004886922,-0.0036651916,0.0036651916,10111539579,50.929688
10111541818,-1.2299109,-9.944571,0.21535404,10111541818,0.0061086523,-0.008552114,0.0036651916,10111541818,50.929688
10111544440,-1.2346965,-9.930214,0.23449662,10111544440,0.002443461,-0.010995574,0.0036651916,10111544440,50.929688
10111546306,-1.2394822,-9.944571,0.23449662,10111546306,-0.002443461,-0.004886922,0.0012217305,10111546306,50.929688
10111548545,-1.2394822,-9.944571,0.22013968,10111548545,0,-0.0012217305,0.0012217305,10111548545,50.929688
10111550784,-1.2346965,-9.954143,0.22013968,10111550784,0.0036651916,-0.0012217305,0.0012217305,10111550784,50.929688
10111553023,-1.2203395,-9.954143,0.22013968,10111553023,0.004886922,-0.0061086523,0.0036651916,10111553023,50.929688
10111555280,-1.2299109,-9.944571,0.22971097,10111555280,0.0036651916,-0.010995574,0.0036651916,10111555280,50.910156
10111557519,-1.2394822,-9.939785,0.21535404,10111557519,-0.0012217305,-0.008552114,0.0036651916,10111557519,50.910156
10111559758,-1.2251252,-9.944571,0.23449662,10111559758,-0.0036651916,-0.007330383,0.0036651916,10111559758,50.910156
10111561997,-1.2394822,-9.939785,0.23928227,10111561997,0.004886922,-0.004886922,0.0036651916,10111561997,50.910156
10111564433,-1.2442678,-9.939785,0.23928227,10111564433,0.004886922,-0.0036651916,0.0036651916,10111564433,50.910156
10111566486,-1.2442678,-9.939785,0.2440679,10111566486,0.0061086523,-0.008552114,0.0012217305,10111566486,50.910156
10111568725,-1.2203395,-9.944571,0.23928227,10111568725,0.0036651916,-0.0061086523,0.0036651916,10111568725,50.910156
10111570963,-1.2346965,-9.939785,0.22971097,10111570963,0.002443461,-0.0036651916,0.0036651916,10111570963,50.910156
10111573202,-1.2442678,-9.939785,0.22971097,10111573202,0.0036651916,-0.004886922,0.0036651916,10111573202,50.933594
10111575430,-1.2299109,-9.934999,0.2440679,10111575430,0.0012217305,-0.002443461,0.002443461,10111575430,50.933594
10111577669,-1.253839,-9.954143,0.2009971,10111577669,0.002443461,-0.002443461,0.002443461,10111577669,50.933594
10111579907,-1.2490535,-9.939785,0.22013968,10111579907,0.004886922,-0.002443461,0.004886922,10111579907,50.933594
10111582146,-1.2346965,-9.939785,0.23449662,10111582146,0.004886922,-0.004886922,0.002443461,10111582146,50.933594
10111584403,-1.2442678,-9.963714,0.20578274,10111584403,0.0036651916,-0.004886922,0.0036651916,10111584403,50.933594
10111586641,-1.2203395,-9.944571,0.22971097,10111586641,0.0036651916,-0.0036651916,0.0036651916,10111586641,50.933594
10111588880,-1.2394822,-9.925428,0.22013968,10111588880,0.004886922,-0.004886922,0.004886922,10111588880,50.933594
10111591119,-1.2251252,-9.944571,0.23449662,10111591119,0.0036651916,-0.002443461,0.002443461,10111591119,50.902344
10111593358,-1.2299109,-9.954143,0.22013968,10111593358,0.002443461,-0.0036651916,0.0036651916,10111593358,50.902344
10111595596,-1.2346965,-9.954143,0.2440679,10111595596,0.004886922,-0.004886922,0.0036651916,10111595596,50.902344
10111597835,-1.2299109,-9.934999,0.23449662,10111597835,0.004886922,-0.0036651916,0.0036651916,10111597835,50.902344
10111600074,-1.2490535,-9.949356,0.2440679,10111600074,0.0036651916,-0.002443461,0.002443461,10111600074,50.902344
10111602312,-1.2251252,-9.939785,0.23449662,10111602312,0.0012217305,-0.004886922,0.0012217305,10111602312,50.902344
10111604563,-1.2442678,-9.944571,0.24885355,10111604563,0,-0.004886922,0.002443461,10111604563,50.902344
10111606802,-1.253839,-9.954143,0.22013968,10111606802,0,-0.0036651916,0.0036651916,10111606802,50.902344
10111609040,-1.2394822,-9.954143,0.23928227,10111609040,0.0036651916,-0.0036651916,0.0036651916,10111609040,50.875
10111611279,-1.2490535,-9.958928,0.22013968,10111611279,0.004886922,-0.0036651916,0.0036651916,10111611279,50.875
10111613518,-1.2490535,-9.949356,0.23449662,10111613518,0.002443461,-0.002443461,0.0036651916,10111613518,50.875
10111615785,-1.2490535,-9.930214,0.23449662,10111615785,0.0012217305,-0.0012217305,0.0061086523,10111615785,50.875
10111618023,-1.2442678,-9.949356,0.2536392,10111618023,0,-0.0036651916,0.0061086523,10111618023,50.875
10111620262,-1.2346965,-9.939785,0.23928227,10111620262,0.002443461,-0.002443461,0.004886922,10111620262,50.875
10111622501,-1.2394822,-9.939785,0.23449662,10111622501,0.002443461,-0.0012217305,0.004886922,10111622501,50.875
10111624739,-1.2299109,-9.963714,0.24885355,10111624739,0,-0.0012217305,0.002443461,10111624739,50.875
10111626978,-1.2251252,-9.939785,0.23449662,10111626978,0.002443461,-0.004886922,0.002443461,10111626978,50.898438
10111629217,-1.2394822,-9.944571,0.22013968,10111629217,0.002443461,-0.002443461,0.0036651916,10111629217,50.898438
10111631455,-1.2490535,-9.949356,0.2440679,10111631455,0.002443461,-0.0012217305,0.004886922,10111631455,50.898438
10111633694,-1.2586247,-9.954143,0.22492532,10111633694,0.0012217305,-0.004886922,0.004886922,10111633694,50.898438
10111635945,-1.2442678,-9.949356,0.2632105,10111635945,0.002443461,-0.0036651916,0.0036651916,10111635945,50.898438
10111638184,-1.2251252,-9.939785,0.24885355,10111638184,0.0036651916,-0.004886922,0.004886922,10111638184,50.898438
10111640422,-1.2346965,-9.944571,0.2536392,10111640422,0.0036651916,-0.0061086523,0.004886922,10111640422,50.898438
10111642661,-1.2299109,-9.939785,0.23449662,10111642661,0.0036651916,-0.004886922,0.004886922,10111642661,50.898438
10111644909,-1.2442678,-9.934999,0.24885355,10111644909,0.002443461,-0.002443461,0.0036651916,10111644909,50.910156
10111647147,-1.2346965,-9.934999,0.23928227,10111647147,0.004886922,-0.0036651916,0.002443461,10111647147,50.910156
10111649386,-1.2394822,-9.963714,0.25842485,10111649386,0.002443461,-0.004886922,0.0036651916,10111649386,50.910156
10111651625,-1.2442678,-9.949356,0.2440679,10111651625,0.002443461,0,0.0036651916,10111651625,50.910156
10111653864,-1.2442678,-9.944571,0.24885355,10111653864,0,-0.002443461,0.0036651916,10111653864,50.910156
10111656110,-1.2586247,-9.944571,0.25842485,10111656110,0.0061086523,-0.0061086523,0.002443461,10111656110,50.910156
10111658349,-1.2394822,-9.939785,0.2440679,10111658349,0.004886922,-0.004886922,0.002443461,10111658349,50.910156
10111660588,-1.253839,-9.958928,0.2536392,10111660588,0.0012217305,-0.004886922,0.0036651916,10111660588,50.910156
10111662826,-1.2490535,-9.949356,0.24885355,10111662826,0.002443461,-0.0061086523,0.0036651916,10111662826,50.88672
10111665072,-1.253839,-9.949356,0.2440679,10111665072,0.0012217305,-0.0036651916,0.0036651916,10111665072,50.88672
10111667311,-1.2394822,-9.954143,0.2536392,10111667311,0.002443461,-0.0012217305,0.004886922,10111667311,50.88672
10111669550,-1.2442678,-9.954143,0.24885355,10111669550,0.002443461,-0.004886922,0.002443461,10111669550,50.88672
10111671789,-1.2346965,-9.954143,0.24885355,10111671789,0.0012217305,-0.008552114,0.004886922,10111671789,50.88672
10111674402,-1.2490535,-9.939785,0.2536392,10111674402,0.0012217305,-0.007330383,0.004886922,10111674402,50.88672
10111676268,-1.253839,-9.954143,0.2632105,10111676268,0.002443461,-0.0012217305,0.0036651916,10111676268,50.88672
10111678507,-1.2203395,-9.939785,0.2440679,10111678507,0.002443461,-0.002443461,0.002443461,10111678507,50.88672
10111680746,-1.2203395,-9.949356,0.24885355,10111680746,0.0036651916,-0.004886922,0.0036651916,10111680746,50.88672
10111682985,-1.2394822,-9.949356,0.2632105,10111682985,0.002443461,-0.004886922,0.0036651916,10111682985,50.88672
10111685239,-1.2299109,-9.958928,0.2536392,10111685239,0,-0.004886922,0.002443461,10111685239,50.88672
10111687478,-1.2251252,-9.954143,0.2632105,10111687478,0,-0.0036651916,0,10111687478,50.88672
10111689717,-1.2442678,-9.939785,0.23928227,10111689717,0,-0.0036651916,0.002443461,10111689717,50.88672
10111691956,-1.2586247,-9.954143,0.24885355,10111691956,0.0036651916,-0.004886922,0.004886922,10111691956,50.88672
10111694400,-1.2299109,-9.944571,0.2536392,10111694400,0.0036651916,-0.004886922,0.0036651916,10111694400,50.88672
10111696453,-1.2394822,-9.930214,0.2536392,10111696453,0.002443461,-0.0061086523,0.0012217305,10111696453,50.88672
10111698692,-1.2394822,-9.944571,0.25842485,10111698692,0.0036651916,-0.007330383,0.004886922,10111698692,50.88672
10111700930,-1.2203395,-9.954143,0.23449662,10111700930,0.002443461,-0.0036651916,0.0036651916,10111700930,50.88672
10111703169,-1.2442678,-9.958928,0.2632105,10111703169,0.0012217305,-0.008552114,0.004886922,10111703169,50.88672
10111705409,-1.2586247,-9.934999,0.24885355,10111705409,0,-0.0061086523,0.004886922,10111705409,50.88672
10111707648,-1.2442678,-9.954143,0.25842485,10111707648,0.0012217305,-0.0061086523,0.0036651916,10111707648,50.88672
10111709887,-1.253839,-9.958928,0.24885355,10111709887,0,-0.004886922,0.002443461,10111709887,50.88672
10111712126,-1.2299109,-9.949356,0.2536392,10111712126,-0.0012217305,-0.007330383,0.0036651916,10111712126,50.88672
10111714402,-1.2586247,-9.949356,0.24885355,10111714402,0.0012217305,-0.0061086523,0.002443461,10111714402,50.88672
10111716618,-1.253839,-9.944571,0.24885355,10111716618,0,-0.0036651916,0,10111716618,50.902344
10111718857,-1.2586247,-9.934999,0.2440679,10111718857,0,-0.0061086523,0.0012217305,10111718857,50.902344
10111721096,-1.253839,-9.949356,0.23449662,10111721096,0.002443461,-0.008552114,0.004886922,10111721096,50.902344
10111723334,-1.2442678,-9.949356,0.2440679,10111723334,0.0036651916,-0.007330383,0.0036651916,10111723334,50.902344
10111725577,-1.2346965,-9.944571,0.2727818,10111725577,0.002443461,-0.0036651916,0.0036651916,10111725577,50.902344
10111727815,-1.2442678,-9.949356,0.24885355,10111727815,0.004886922,-0.007330383,0.004886922,10111727815,50.902344
10111730054,-1.2490535,-9.949356,0.2440679,10111730054,0.0036651916,-0.0061086523,0.0036651916,10111730054,50.902344
10111732293,-1.2490535,-9.954143,0.23928227,10111732293,0.0036651916,-0.007330383,0.002443461,10111732293,50.902344
10111734541,-1.2442678,-9.939785,0.24885355,10111734541,0.002443461,-0.009773844,0.0036651916,10111734541,50.89453
10111736780,-1.2394822,-9.958928,0.23449662,10111736780,0.002443461,-0.0061086523,0.002443461,10111736780,50.89453
10111739019,-1.253839,-9.939785,0.22013968,10111739019,0.0012217305,-0.0061086523,0.002443461,10111739019,50.89453
10111741258,-1.2490535,-9.930214,0.22013968,10111741258,0.0036651916,-0.008552114,0.0036651916,10111741258,50.89453
10111743497,-1.2346965,-9.934999,0.2536392,10111743497,0.004886922,-0.008552114,0.004886922,10111743497,50.89453
10111745739,-1.2299109,-9.949356,0.2440679,10111745739,0,-0.007330383,0.0036651916,10111745739,50.89453
10111747978,-1.2346965,-9.954143,0.22971097,10111747978,0.002443461,-0.010995574,0.0036651916,10111747978,50.89453
10111750216,-1.253839,-9.934999,0.24885355,10111750216,-0.0012217305,-0.007330383,0.0036651916,10111750216,50.89453
10111752455,-1.2490535,-9.958928,0.2440679,10111752455,-0.0012217305,-0.007330383,0.0036651916,10111752455,50.88672
10111754700,-1.2490535,-9.944571,0.23449662,10111754700,0.0012217305,-0.008552114,0.0036651916,10111754700,50.88672
10111756939,-1.2394822,-9.949356,0.22492532,10111756939,0.0012217305,-0.007330383,0.0036651916,10111756939,50.88672
10111759178,-1.2442678,-9.944571,0.22013968,10111759178,0,-0.008552114,0.0036651916,10111759178,50.88672
10111761416,-1.2442678,-9.944571,0.24885355,10111761416,0.0012217305,-0.009773844,0.0061086523,10111761416,50.88672
10111763655,-1.253839,-9.939785,0.23449662,10111763655,0.0036651916,-0.0061086523,0.004886922,10111763655,50.88672
10111765905,-1.253839,-9.949356,0.23449662,10111765905,0.0012217305,-0.004886922,0.002443461,10111765905,50.88672
10111768144,-1.2394822,-9.958928,0.23928227,10111768144,0.0012217305,-0.0061086523,0.0036651916,10111768144,50.88672
10111770382,-1.2394822,-9.954143,0.2536392,10111770382,0,-0.007330383,0.002443461,10111770382,50.89453
10111772621,-1.2490535,-9.944571,0.2440679,10111772621,0,-0.004886922,0.0036651916,10111772621,50.89453
10111774879,-1.253839,-9.934999,0.22013968,10111774879,0.0012217305,-0.0036651916,0.004886922,10111774879,50.89453
10111777117,-1.2442678,-9.930214,0.22971097,10111777117,0.002443461,-0.004886922,0.004886922,10111777117,50.89453
10111779356,-1.2490535,-9.954143,0.22013968,10111779356,0.002443461,-0.004886922,0.004886922,10111779356,50.89453
10111781595,-1.2394822,-9.944571,0.22013968,10111781595,0.0036651916,-0.004886922,0.004886922,10111781595,50.89453
10111783834,-1.2346965,-9.939785,0.21535404,10111783834,0.002443461,-0.0061086523,0.0036651916,10111783834,50.89453
10111786074,-1.2299109,-9.954143,0.23449662,10111786074,0.002443461,-0.008552114,0.002443461,10111786074,50.89453
10111788313,-1.2346965,-9.954143,0.2440679,10111788313,0.002443461,-0.007330383,0.0061086523,10111788313,50.902344
10111790552,-1.2394822,-9.939785,0.25842485,10111790552,0,-0.007330383,0.004886922,10111790552,50.902344
10111792790,-1.2490535,-9.934999,0.23928227,10111792790,0,-0.007330383,0.0036651916,10111792790,50.902344
10111795044,-1.2490535,-9.939785,0.23928227,10111795044,0.002443461,-0.0061086523,0.002443461,10111795044,50.902344
10111797283,-1.2634103,-9.954143,0.22492532,10111797283,0.002443461,-0.0061086523,0.004886922,10111797283,50.902344
10111799521,-1.253839,-9.954143,0.23449662,10111799521,0.0036651916,-0.0061086523,0.0036651916,10111799521,50.902344
10111801760,-1.2346965,-9.925428,0.22971097,10111801760,0.002443461,-0.004886922,0.0036651916,10111801760,50.902344
10111804400,-1.2394822,-9.939785,0.22971097,10111804400,0.002443461,-0.007330383,0.004886922,10111804400,50.902344
10111806243,-1.2299109,-9.949356,0.22971097,10111806243,0.002443461,-0.004886922,0.002443461,10111806243,50.875
10111808482,-1.2346965,-9.934999,0.2440679,10111808482,0.004886922,-0.0061086523,0.0036651916,10111808482,50.875
10111810720,-1.2251252,-9.958928,0.23928227,10111810720,0,-0.008552114,0.0012217305,10111810720,50.875
10111812959,-1.2346965,-9.954143,0.22492532,10111812959,0.0036651916,-0.0061086523,0.0036651916,10111812959,50.875
10111815196,-1.2346965,-9.944571,0.23449662,10111815196,0.0012217305,-0.007330383,0.002443461,10111815196,50.875
10111817435,-1.2442678,-9.934999,0.22013968,10111817435,0.0036651916,-0.008552114,0.002443461,10111817435,50.875
10111819674,-1.2346965,-9.934999,0.21535404,10111819674,0.0036651916,-0.004886922,0.0036651916,10111819674,50.875
10111821913,-1.2442678,-9.944571,0.21535404,10111821913,0.002443461,-0.004886922,0.004886922,10111821913,50.875
10111824412,-1.2394822,-9.944571,0.21535404,10111824412,0,-0.004886922,0.0061086523,10111824412,50.890625
10111826418,-1.2442678,-9.954143,0.2440679,10111826418,0.002443461,-0.0036651916,0.0036651916,10111826418,50.890625
10111828657,-1.2490535,-9.934999,0.24885355,10111828657,0.0012217305,-0.0036651916,0.0036651916,10111828657,50.890625
10111830896,-1.2442678,-9.934999,0.22013968,10111830896,0.0012217305,-0.0061086523,0.0036651916,10111830896,50.890625
10111833135,-1.2346965,-9.939785,0.23928227,10111833135,0.004886922,-0.007330383,0.002443461,10111833135,50.890625
10111835384,-1.253839,-9.939785,0.22971097,10111835384,0.002443461,-0.009773844,0.0036651916,10111835384,50.890625
10111837623,-1.2394822,-9.944571,0.22013968,10111837623,0.0036651916,-0.008552114,0.002443461,10111837623,50.890625
10111839862,-1.2203395,-9.954143,0.23449662,10111839862,0.0012217305,-0.0036651916,0.004886922,10111839862,50.890625
10111842100,-1.2251252,-9.954143,0.24885355,10111842100,0,-0.004886922,0.002443461,10111842100,50.88672
10111844437,-1.2299109,-9.944571,0.22492532,10111844437,0.004886922,-0.0061086523,0.0036651916,10111844437,50.88672
10111846583,-1.2346965,-9.958928,0.22013968,10111846583,0.002443461,-0.007330383,0.0036651916,10111846583,50.88672
10111848822,-1.2346965,-9.949356,0.22971097,10111848822,0.0012217305,-0.0061086523,0.0036651916,10111848822,50.88672
10111851061,-1.2346965,-9.954143,0.2440679,10111851061,0.0012217305,-0.008552114,0.002443461,10111851061,50.88672
10111853299,-1.2394822,-9.939785,0.23449662,10111853299,0.004886922,-0.0061086523,0.0036651916,10111853299,50.88672
10111855537,-1.2442678,-9.934999,0.23928227,10111855537,0.0012217305,-0.004886922,0.002443461,10111855537,50.88672
10111857775,-1.2442678,-9.934999,0.25842485,10111857775,0.002443461,-0.002443461,0.004886922,10111857775,50.88672
10111860014,-1.2299109,-9.939785,0.24885355,10111860014,0.0036651916,-0.007330383,0.0036651916,10111860014,50.902344
10111862253,-1.2299109,-9.939785,0.23449662,10111862253,0.0012217305,-0.007330383,0.002443461,10111862253,50.902344
10111864509,-1.2203395,-9.939785,0.23449662,10111864509,0.0012217305,-0.0061086523,0.0036651916,10111864509,50.902344
10111866748,-1.2346965,-9.920643,0.23928227,10111866748,0.002443461,-0.0061086523,0.0036651916,10111866748,50.902344
10111868987,-1.2490535,-9.934999,0.24885355,10111868987,0.0012217305,-0.007330383,0.002443461,10111868987,50.902344
10111871226,-1.2346965,-9.949356,0.22971097,10111871226,0.0036651916,-0.0061086523,0.002443461,10111871226,50.902344
10111873465,-1.2251252,-9.930214,0.22971097,10111873465,0.0036651916,-0.004886922,0.004886922,10111873465,50.902344
10111875698,-1.2442678,-9.930214,0.22013968,10111875698,0.002443461,-0.007330383,0.004886922,10111875698,50.902344
10111877937,-1.253839,-9.944571,0.23449662,10111877937,0.002443461,-0.007330383,0.002443461,10111877937,50.875
10111880175,-1.2346965,-9.939785,0.23449662,10111880175,0.0012217305,-0.0061086523,0.0036651916,10111880175,50.875
10111882414,-1.2299109,-9.949356,0.22971097,10111882414,0,-0.0061086523,0.0036651916,10111882414,50.875
10111884670,-1.2394822,-9.958928,0.23449662,10111884670,0,-0.004886922,0.0036651916,10111884670,50.875
10111886909,-1.2394822,-9.939785,0.23928227,10111886909,0.002443461,-0.0061086523,0.0036651916,10111886909,50.875
10111889147,-1.2203395,-9.944571,0.22971097,10111889147,0.0036651916,-0.007330383,0.004886922,10111889147,50.875
10111891386,-1.2490535,-9.934999,0.24885355,10111891386,0.0036651916,-0.004886922,0.0036651916,10111891386,50.875
10111893625,-1.2299109,-9.963714,0.23449662,10111893625,0.0036651916,-0.007330383,0.002443461,10111893625,50.875
10111895885,-1.2490535,-9.944571,0.22971097,10111895885,0.004886922,-0.007330383,0.0012217305,10111895885,50.878906
10111898124,-1.253839,-9.939785,0.22492532,10111898124,0.0012217305,-0.007330383,0.004886922,10111898124,50.878906
10111900363,-1.2346965,-9.963714,0.23449662,10111900363,0.002443461,-0.008552114,0.007330383,10111900363,50.878906
10111902602,-1.2634103,-9.930214,0.22013968,10111902602,0,-0.0061086523,0.0036651916,10111902602,50.878906
10111904839,-1.2634103,-9.944571,0.22971097,10111904839,0.0012217305,-0.007330383,0.004886922,10111904839,50.878906
10111907078,-1.2586247,-9.954143,0.22013968,10111907078,0.0061086523,-0.0061086523,0.0036651916,10111907078,50.878906
10111909317,-1.2586247,-9.934999,0.23928227,10111909317,0.002443461,-0.0036651916,0.004886922,10111909317,50.878906
10111911555,-1.2634103,-9.934999,0.2009971,10111911555,0,-0.004886922,0.004886922,10111911555,50.878906
10111913794,-1.2490535,-9.939785,0.23449662,10111913794,0.0036651916,-0.007330383,0.0036651916,10111913794,50.890625
10111916039,-1.2394822,-9.939785,0.22492532,10111916039,0.0012217305,-0.0061086523,0.0036651916,10111916039,50.890625
10111918278,-1.253839,-9.934999,0.23449662,10111918278,0,-0.0061086523,0.0036651916,10111918278,50.890625
10111920517,-1.2251252,-9.934999,0.21535404,10111920517,-0.0012217305,-0.0036651916,0.0012217305,10111920517,50.890625
10111922755,-1.2394822,-9.939785,0.22013968,10111922755,0.002443461,-0.007330383,0.002443461,10111922755,50.890625
10111925015,-1.2442678,-9.934999,0.22971097,10111925015,0.0036651916,-0.008552114,0.0036651916,10111925015,50.890625
10111927254,-1.2299109,-9.934999,0.22971097,10111927254,0.0036651916,-0.008552114,0.0036651916,10111927254,50.890625
10111929492,-1.2394822,-9.925428,0.23449662,10111929492,0.0012217305,-0.0061086523,0.0036651916,10111929492,50.890625
10111931731,-1.2490535,-9.930214,0.24885355,10111931731,0.0036651916,-0.007330383,0.002443461,10111931731,50.88672
10111934436,-1.2394822,-9.939785,0.23449662,10111934436,0.0012217305,-0.004886922,0.002443461,10111934436,50.88672
10111936209,-1.2394822,-9.954143,0.2440679,10111936209,0,-0.0036651916,0,10111936209,50.88672
10111938448,-1.2490535,-9.934999,0.2536392,10111938448,-0.0012217305,-0.0061086523,0.0036651916,10111938448,50.88672
10111940687,-1.2490535,-9.939785,0.23449662,10111940687,0.0012217305,-0.008552114,0.0036651916,10111940687,50.88672
10111942925,-1.2299109,-9.934999,0.23449662,10111942925,0.0012217305,-0.008552114,0.0036651916,10111942925,50.88672
10111945165,-1.2586247,-9.944571,0.22971097,10111945165,-0.0012217305,-0.004886922,0.0036651916,10111945165,50.88672
10111947404,-1.2394822,-9.944571,0.22492532,10111947404,0,-0.004886922,0.002443461,10111947404,50.88672
10111949643,-1.2394822,-9.934999,0.22013968,10111949643,0.0036651916,-0.009773844,0.002443461,10111949643,50.89453
10111951882,-1.2490535,-9.930214,0.23449662,10111951882,0.0036651916,-0.007330383,0.002443461,10111951882,50.89453
10111954439,-1.2442678,-9.939785,0.22013968,10111954439,0.002443461,-0.004886922,0.002443461,10111954439,50.89453
10111956375,-1.2346965,-9.944571,0.21535404,10111956375,0.004886922,-0.009773844,0.0061086523,10111956375,50.89453
10111958614,-1.2346965,-9.954143,0.2440679,10111958614,0.0036651916,-0.004886922,0.002443461,10111958614,50.89453
10111960853,-1.2299109,-9.949356,0.22013968,10111960853,0.0036651916,-0.0061086523,0.0036651916,10111960853,50.89453
10111963092,-1.2203395,-9.958928,0.22013968,10111963092,0.002443461,-0.008552114,0.0036651916,10111963092,50.89453
10111965346,-1.2299109,-9.939785,0.23928227,10111965346,0.0012217305,-0.0036651916,0.002443461,10111965346,50.89453
10111967585,-1.2203395,-9.939785,0.22013968,10111967585,0.0036651916,-0.0061086523,0.0061086523,10111967585,50.882812
10111969824,-1.2203395,-9.973285,0.2105684,10111969824,0.0036651916,-0.0061086523,0.002443461,10111969824,50.882812
10111972062,-1.2251252,-9.949356,0.21535404,10111972062,0.0036651916,-0.004886922,0.002443461,10111972062,50.882812
10111974436,-1.2394822,-9.944571,0.21535404,10111974436,0.002443461,0,0.0036651916,10111974436,50.882812
10111976535,-1.2251252,-9.934999,0.23928227,10111976535,0,-0.004886922,0.0012217305,10111976535,50.882812
10111978774,-1.2203395,-9.954143,0.21535404,10111978774,0.0012217305,-0.004886922,0.002443461,10111978774,50.882812
10111981013,-1.2059826,-9.939785,0.22971097,10111981013,0.0036651916,-0.002443461,0.002443461,10111981013,50.882812
10111983252,-1.2155539,-9.944571,0.2105684,10111983252,0.0012217305,-0.004886922,0.0036651916,10111983252,50.882812
10111985512,-1.2251252,-9.939785,0.22492532,10111985512,0.0036651916,-0.007330383,0.0036651916,10111985512,50.878906
10111987751,-1.2251252,-9.934999,0.21535404,10111987751,0.002443461,-0.004886922,0.002443461,10111987751,50.878906
10111989990,-1.2299109,-9.939785,0.22492532,10111989990,0.002443461,-0.007330383,0.0012217305,10111989990,50.878906
10111992229,-1.253839,-9.954143,0.22492532,10111992229,0.0012217305,-0.007330383,0.0036651916,10111992229,50.878906
10111994483,-1.2442678,-9.930214,0.21535404,10111994483,0,-0.002443461,0.0036651916,10111994483,50.878906
10111996722,-1.2299109,-9.954143,0.23449662,10111996722,0.002443461,-0.004886922,0.004886922,10111996722,50.878906
10111998961,-1.2442678,-9.949356,0.23449662,10111998961,0.002443461,-0.0061086523,0.0036651916,10111998961,50.878906
10112001200,-1.2251252,-9.939785,0.22971097,10112001200,0.004886922,-0.0036651916,0.0012217305,10112001200,50.878906
10112003438,-1.253839,-9.930214,0.22492532,10112003438,0.004886922,-0.0036651916,0.002443461,10112003438,50.871094
10112005668,-1.2394822,-9.925428,0.22013968,10112005668,0.0012217305,-0.0061086523,0.0036651916,10112005668,50.871094
10112007907,-1.2203395,-9.939785,0.23449662,10112007907,0,-0.0061086523,0.0036651916,10112007907,50.871094
10112010146,-1.2251252,-9.949356,0.22013968,10112010146,0.0012217305,-0.002443461,0.0036651916,10112010146,50.871094
10112012384,-1.2299109,-9.954143,0.2105684,10112012384,0.0012217305,-0.004886922,0.0061086523,10112012384,50.871094
10112014634,-1.2251252,-9.954143,0.2105684,10112014634,0.0012217305,-0.004886922,0.004886922,10112014634,50.871094
10112016873,-1.2299109,-9.934999,0.22971097,10112016873,-0.002443461,-0.002443461,0.004886922,10112016873,50.871094
10112019111,-1.2394822,-9.954143,0.21535404,10112019111,0.002443461,-0.002443461,0.0012217305,10112019111,50.871094
10112021350,-1.2251252,-9.944571,0.22013968,10112021350,0.002443461,-0.0036651916,0.002443461,10112021350,50.882812
10112023589,-1.2394822,-9.949356,0.22971097,10112023589,0.004886922,-0.004886922,0.0036651916,10112023589,50.882812
10112025843,-1.2299109,-9.934999,0.2440679,10112025843,0.0061086523,-0.004886922,0.0036651916,10112025843,50.882812
10112028082,-1.2442678,-9.925428,0.22971097,10112028082,0.002443461,-0.004886922,0.0061086523,10112028082,50.882812
10112030321,-1.2442678,-9.939785,0.22971097,10112030321,0.002443461,-0.0012217305,0.0036651916,10112030321,50.882812
10112032560,-1.2490535,-9.944571,0.24885355,10112032560,0,-0.0036651916,0.004886922,10112032560,50.882812
10112034799,-1.2442678,-9.934999,0.22492532,10112034799,0.002443461,-0.004886922,0.002443461,10112034799,50.882812
10112037038,-1.2586247,-9.939785,0.2536392,10112037038,0.0036651916,-0.0036651916,0.002443461,10112037038,50.882812
10112039277,-1.2490535,-9.939785,0.23928227,10112039277,0.002443461,-0.004886922,0.002443461,10112039277,50.859375
10112041515,-1.2490535,-9.939785,0.21535404,10112041515,0.0036651916,-0.007330383,0.0036651916,10112041515,50.859375
10112043754,-1.2251252,-9.944571,0.23928227,10112043754,0.0012217305,-0.0061086523,0.0036651916,10112043754,50.859375
10112046009,-1.2442678,-9.944571,0.23449662,10112046009,0.002443461,-0.0061086523,0.0036651916,10112046009,50.859375
10112048248,-1.2346965,-9.944571,0.23928227,10112048248,0.0012217305,-0.0036651916,0.002443461,10112048248,50.859375
10112050486,-1.2490535,-9.939785,0.23928227,10112050486,0.0012217305,-0.004886922,0.002443461,10112050486,50.859375
10112052725,-1.2490535,-9.949356,0.22492532,10112052725,0.0012217305,-0.0036651916,0.004886922,10112052725,50.859375
10112054985,-1.2346965,-9.949356,0.22013968,10112054985,0.0036651916,-0.0036651916,0.004886922,10112054985,50.859375
10112057223,-1.2394822,-9.939785,0.2105684,10112057223,0.0012217305,-0.0036651916,0.0036651916,10112057223,50.921875
10112059462,-1.2346965,-9.958928,0.2440679,10112059462,0.002443461,-0.0036651916,0.0036651916,10112059462,50.921875
10112061701,-1.2251252,-9.939785,0.24885355,10112061701,0.004886922,-0.0036651916,0.0036651916,10112061701,50.921875
10112064438,-1.2107682,-9.949356,0.21535404,10112064438,0.004886922,-0.004886922,0.0036651916,10112064438,50.921875
10112066188,-1.2203395,-9.939785,0.23449662,10112066188,0.0012217305,-0.0061086523,0.0036651916,10112066188,50.921875
10112068426,-1.2059826,-9.939785,0.24885355,10112068426,0.002443461,-0.0061086523,0.0036651916,10112068426,50.921875
10112070665,-1.2346965,-9.939785,0.23449662,10112070665,0.0012217305,-0.0061086523,0.002443461,10112070665,50.921875
10112072904,-1.2203395,-9.930214,0.23928227,10112072904,0.002443461,-0.0036651916,0.002443461,10112072904,50.921875
10112075139,-1.2299109,-9.934999,0.25842485,10112075139,0.002443461,-0.004886922,0.0036651916,10112075139,50.867188
10112077378,-1.2203395,-9.939785,0.22492532,10112077378,0.002443461,-0.0036651916,0.0036651916,10112077378,50.867188
10112079617,-1.253839,-9.958928,0.23449662,10112079617,0.002443461,-0.0036651916,0.0036651916,10112079617,50.867188
10112081856,-1.2346965,-9.949356,0.24885355,10112081856,0.0012217305,-0.0036651916,0.002443461,10112081856,50.867188
10112084433,-1.2490535,-9.944571,0.2440679,10112084433,0.0036651916,0.0012217305,0.002443461,10112084433,50.867188
10112086346,-1.2442678,-9.930214,0.22971097,10112086346,0.0061086523,-0.0061086523,0.0012217305,10112086346,50.867188
10112088585,-1.2394822,-9.939785,0.23449662,10112088585,0.002443461,-0.004886922,0.0036651916,10112088585,50.867188
10112090823,-1.2346965,-9.934999,0.2536392,10112090823,0.004886922,-0.0012217305,0.0012217305,10112090823,50.867188
10112093062,-1.2394822,-9.939785,0.2536392,10112093062,0.007330383,-0.0036651916,0.0036651916,10112093062,50.90625
10112095313,-1.253839,-9.939785,0.2440679,10112095313,0.0012217305,-0.007330383,0.0036651916,10112095313,50.90625
10112097552,-1.2490535,-9.944571,0.25842485,10112097552,0.002443461,-0.0036651916,0.002443461,10112097552,50.90625
10112099791,-1.2586247,-9.949356,0.24885355,10112099791,0.0036651916,-0.002443461,0.0036651916,10112099791,50.90625
10112102030,-1.253839,-9.963714,0.23449662,10112102030,0.004886922,-0.004886922,0.002443461,10112102030,50.90625
10112104404,-1.2490535,-9.963714,0.23449662,10112104404,0.004886922,-0.0061086523,0.002443461,10112104404,50.90625
10112106503,-1.2299109,-9.939785,0.24885355,10112106503,0.0012217305,-0.0036651916,0.0036651916,10112106503,50.90625
10112108742,-1.2490535,-9.939785,0.2440679,10112108742,0.0012217305,-0.004886922,0.0036651916,10112108742,50.90625
10112110981,-1.2346965,-9.944571,0.26799613,10112110981,0.0012217305,-0.0036651916,0.0012217305,10112110981,50.882812
10112113220,-1.2394822,-9.939785,0.22971097,10112113220,0.0012217305,-0.002443461,0.002443461,10112113220,50.882812
10112115479,-1.253839,-9.949356,0.24885355,10112115479,0.0012217305,-0.0036651916,0.002443461,10112115479,50.882812
10112117718,-1.2346965,-9.949356,0.2440679,10112117718,0.002443461,-0.009773844,0.0036651916,10112117718,50.882812
10112119957,-1.2586247,-9.944571,0.24885355,10112119957,0.0012217305,-0.010995574,0.004886922,10112119957,50.882812
10112122196,-1.2586247,-9.930214,0.24885355,10112122196,0.0012217305,-0.007330383,0.0012217305,10112122196,50.882812
10112124432,-1.2442678,-9.939785,0.23928227,10112124432,-0.0012217305,-0.004886922,0.0012217305,10112124432,50.882812
10112126671,-1.253839,-9.958928,0.23928227,10112126671,0.0012217305,-0.002443461,0.0036651916,10112126671,50.882812
10112128909,-1.253839,-9.930214,0.2440679,10112128909,0.0061086523,-0.0061086523,0.004886922,10112128909,50.871094
10112131148,-1.2490535,-9.920643,0.2536392,10112131148,0.0036651916,-0.008552114,0.004886922,10112131148,50.871094
10112133387,-1.268196,-9.954143,0.24885355,10112133387,0.0012217305,-0.007330383,0.0012217305,10112133387,50.871094
10112135643,-1.2394822,-9.939785,0.25842485,10112135643,0.0012217305,-0.0036651916,0.0036651916,10112135643,50.871094
10112137881,-1.2394822,-9.944571,0.2440679,10112137881,0.002443461,-0.0061086523,0.002443461,10112137881,50.871094
10112140120,-1.2299109,-9.944571,0.22492532,10112140120,0.002443461,-0.0036651916,0.0036651916,10112140120,50.871094
10112142359,-1.2586247,-9.958928,0.25842485,10112142359,0.0036651916,-0.004886922,0.004886922,10112142359,50.871094
10112144615,-1.2251252,-9.944571,0.2440679,10112144615,0.0036651916,-0.013439035,0.0036651916,10112144615,50.871094
10112146854,-1.2490535,-9.954143,0.23449662,10112146854,0.0012217305,-0.008552114,0.002443461,10112146854,50.86328
10112149093,-1.2442678,-9.925428,0.22492532,10112149093,-0.002443461,-0.002443461,0.002443461,10112149093,50.86328
10112151332,-1.2394822,-9.944571,0.23449662,10112151332,0,0,0.002443461,10112151332,50.86328
10112153571,-1.2634103,-9.944571,0.2440679,10112153571,0.0036651916,-0.0036651916,0.0036651916,10112153571,50.86328
10112155805,-1.2299109,-9.949356,0.24885355,10112155805,0,-0.004886922,0.0036651916,10112155805,50.86328
10112158044,-1.2346965,-9.944571,0.23449662,10112158044,0,-0.008552114,0.004886922,10112158044,50.86328
10112160282,-1.2155539,-9.944571,0.25842485,10112160282,0.002443461,-0.008552114,0.0036651916,10112160282,50.86328
10112162521,-1.2442678,-9.939785,0.23449662,10112162521,0.002443461,-0.008552114,0.0036651916,10112162521,50.86328
10112164772,-1.2490535,-9.939785,0.2536392,10112164772,0.0012217305,-0.004886922,0.004886922,10112164772,50.882812
10112167010,-1.2251252,-9.958928,0.24885355,10112167010,0.004886922,-0.004886922,0.0036651916,10112167010,50.882812
10112169249,-1.2251252,-9.944571,0.23449662,10112169249,0.0036651916,-0.0061086523,0.0036651916,10112169249,50.882812
10112171488,-1.2394822,-9.944571,0.2727818,10112171488,-0.0012217305,-0.007330383,0.0036651916,10112171488,50.882812
10112173727,-1.2346965,-9.954143,0.2536392,10112173727,0.002443461,-0.007330383,0.0036651916,10112173727,50.882812
10112175968,-1.2394822,-9.930214,0.23449662,10112175968,0.007330383,-0.007330383,0.002443461,10112175968,50.882812
10112178207,-1.2059826,-9.934999,0.22971097,10112178207,-0.0012217305,-0.0061086523,0.002443461,10112178207,50.882812
10112180446,-1.2346965,-9.944571,0.24885355,10112180446,0.0036651916,-0.0036651916,0.0036651916,10112180446,50.882812
10112182684,-1.2346965,-9.920643,0.2440679,10112182684,0.002443461,-0.0061086523,0.0036651916,10112182684,50.89453
10112184931,-1.2394822,-9.944571,0.23928227,10112184931,0.002443461,-0.008552114,0.004886922,10112184931,50.89453
10112187170,-1.2203395,-9.934999,0.22492532,10112187170,0.0036651916,-0.0061086523,0.002443461,10112187170,50.89453
10112189409,-1.2586247,-9.939785,0.2440679,10112189409,0.0036651916,-0.002443461,0.0036651916,10112189409,50.89453
10112191648,-1.2346965,-9.939785,0.25842485,10112191648,0.002443461,-0.004886922,0.0036651916,10112191648,50.89453
10112193886,-1.2442678,-9.954143,0.24885355,10112193886,0.002443461,-0.007330383,0.0036651916,10112193886,50.89453
10112196143,-1.2346965,-9.939785,0.23928227,10112196143,0.0012217305,-0.004886922,0.0036651916,10112196143,50.89453
10112198382,-1.2394822,-9.949356,0.23449662,10112198382,0.0012217305,-0.007330383,0.0012217305,10112198382,50.89453
10112200621,-1.2394822,-9.944571,0.23449662,10112200621,0.002443461,-0.0061086523,0.002443461,10112200621,50.933594
10112202859,-1.253839,-9.949356,0.24885355,10112202859,0.0036651916,-0.008552114,0.0036651916,10112202859,50.933594
10112205112,-1.2586247,-9.949356,0.23449662,10112205112,0.0012217305,-0.004886922,0.004886922,10112205112,50.933594
10112207351,-1.2299109,-9.934999,0.22492532,10112207351,0.0012217305,-0.0036651916,0.0012217305,10112207351,50.933594
10112209589,-1.2346965,-9.944571,0.23928227,10112209589,0.002443461,-0.0061086523,0.0036651916,10112209589,50.933594
10112211828,-1.2203395,-9.963714,0.2536392,10112211828,0.0036651916,-0.0061086523,0.0036651916,10112211828,50.933594
10112214400,-1.2203395,-9.958928,0.22492532,10112214400,0.002443461,-0.004886922,0.0036651916,10112214400,50.933594
10112216313,-1.2394822,-9.958928,0.2440679,10112216313,0.0012217305,-0.0061086523,0.0036651916,10112216313,50.933594
10112218552,-1.2299109,-9.949356,0.23928227,10112218552,0.0036651916,-0.0061086523,0.0036651916,10112218552,50.902344
10112220790,-1.2299109,-9.958928,0.22971097,10112220790,0.004886922,-0.004886922,0.0036651916,10112220790,50.902344
10112223029,-1.2394822,-9.949356,0.22492532,10112223029,0.002443461,-0.0061086523,0.002443461,10112223029,50.902344
10112225274,-1.2442678,-9.949356,0.23928227,10112225274,0.0012217305,-0.009773844,0.002443461,10112225274,50.902344
10112227513,-1.2442678,-9.939785,0.23449662,10112227513,0.002443461,-0.004886922,0.002443461,10112227513,50.902344
10112229752,-1.2634103,-9.934999,0.25842485,10112229752,0.002443461,-0.007330383,0.0036651916,10112229752,50.902344
10112231991,-1.2490535,-9.954143,0.23928227,10112231991,0,-0.007330383,0.002443461,10112231991,50.902344
10112234402,-1.2346965,-9.949356,0.2440679,10112234402,0.0036651916,-0.008552114,0.0036651916,10112234402,50.902344
10112236478,-1.2346965,-9.944571,0.23449662,10112236478,0.0036651916,-0.009773844,0.0036651916,10112236478,50.859375
10112238717,-1.2394822,-9.939785,0.24885355,10112238717,0.0012217305,-0.0061086523,0.0036651916,10112238717,50.859375
10112240956,-1.2586247,-9.954143,0.2440679,10112240956,0.0012217305,-0.004886922,0.0036651916,10112240956,50.859375
10112243194,-1.2442678,-9.954143,0.23928227,10112243194,0,-0.004886922,0.0036651916,10112243194,50.859375
10112245452,-1.2394822,-9.939785,0.2440679,10112245452,0.0012217305,-0.0036651916,0.0036651916,10112245452,50.859375
10112247691,-1.2394822,-9.944571,0.23928227,10112247691,0.002443461,-0.007330383,0.002443461,10112247691,50.859375
10112249930,-1.2442678,-9.944571,0.2536392,10112249930,-0.0012217305,-0.008552114,0.0036651916,10112249930,50.859375
10112252168,-1.2346965,-9.944571,0.2536392,10112252168,0,-0.0061086523,0.002443461,10112252168,50.859375
10112254405,-1.2346965,-9.939785,0.23449662,10112254405,0,-0.002443461,0.004886922,10112254405,50.882812
10112256643,-1.253839,-9.949356,0.24885355,10112256643,-0.0012217305,-0.004886922,0.0036651916,10112256643,50.882812
10112258882,-1.2251252,-9.954143,0.2440679,10112258882,0.0036651916,-0.0061086523,0.0036651916,10112258882,50.882812
10112261121,-1.2490535,-9.934999,0.25842485,10112261121,0.002443461,-0.002443461,0.002443461,10112261121,50.882812
10112263360,-1.2442678,-9.944571,0.25842485,10112263360,0.0012217305,-0.0061086523,0.0036651916,10112263360,50.882812
10112265618,-1.2203395,-9.944571,0.2632105,10112265618,0.0012217305,-0.004886922,0.0036651916,10112265618,50.882812
10112267857,-1.2346965,-9.944571,0.23928227,10112267857,0.0012217305,-0.0061086523,0.002443461,10112267857,50.882812
10112270096,-1.2251252,-9.925428,0.2440679,10112270096,0.0012217305,-0.004886922,0.002443461,10112270096,50.882812
10112272335,-1.2299109,-9.939785,0.2536392,10112272335,0.0012217305,-0.002443461,0.002443461,10112272335,50.902344
10112274575,-1.2346965,-9.954143,0.23928227,10112274575,0,-0.0061086523,0.002443461,10112274575,50.902344
10112276814,-1.2203395,-9.958928,0.24885355,10112276814,0.0036651916,-0.008552114,0.0036651916,10112276814,50.902344
10112279053,-1.2299109,-9.949356,0.24885355,10112279053,0.002443461,-0.004886922,0.0036651916,10112279053,50.902344
10112281292,-1.2346965,-9.949356,0.2440679,10112281292,0.002443461,-0.004886922,0.002443461,10112281292,50.902344
10112283531,-1.2586247,-9.944571,0.26799613,10112283531,0.0012217305,-0.0036651916,0.0036651916,10112283531,50.902344
10112285788,-1.2394822,-9.925428,0.2440679,10112285788,0.002443461,-0.0061086523,0.0012217305,10112285788,50.902344
10112288027,-1.2394822,-9.958928,0.2440679,10112288027,0.0036651916,-0.007330383,0.004886922,10112288027,50.902344
10112290266,-1.2346965,-9.944571,0.24885355,10112290266,0.004886922,-0.004886922,0.004886922,10112290266,50.902344
10112292505,-1.2346965,-9.949356,0.25842485,10112292505,0.0012217305,-0.002443461,0.004886922,10112292505,50.902344
10112294740,-1.2394822,-9.944571,0.25842485,10112294740,0.002443461,-0.007330383,0.004886922,10112294740,50.902344
10112296978,-1.2442678,-9.939785,0.23928227,10112296978,0.0036651916,-0.008552114,0.004886922,10112296978,50.902344
10112299217,-1.2299109,-9.939785,0.23928227,10112299217,0.002443461,-0.0036651916,0.0036651916,10112299217,50.902344
10112301456,-1.2299109,-9.963714,0.2440679,10112301456,0.002443461,-0.004886922,0.004886922,10112301456,50.902344
10112303695,-1.2299109,-9.954143,0.2440679,10112303695,0,-0.009773844,0.0036651916,10112303695,50.902344
10112305937,-1.2346965,-9.934999,0.22971097,10112305937,0.002443461,-0.007330383,0.0012217305,10112305937,50.902344
10112308176,-1.2299109,-9.954143,0.2440679,10112308176,0.0012217305,-0.007330383,0.0036651916,10112308176,50.89453
10112310415,-1.2490535,-9.958928,0.2440679,10112310415,0.0012217305,-0.007330383,0.0036651916,10112310415,50.89453
10112312653,-1.2346965,-9.934999,0.22971097,10112312653,0.0036651916,-0.007330383,0.002443461,10112312653,50.89453
10112314904,-1.2394822,-9.930214,0.23449662,10112314904,0.0012217305,-0.008552114,0.0036651916,10112314904,50.89453
10112317143,-1.2490535,-9.939785,0.24885355,10112317143,0.002443461,-0.008552114,0.002443461,10112317143,50.89453
10112319382,-1.2442678,-9.930214,0.24885355,10112319382,0,-0.0061086523,0.002443461,10112319382,50.89453
10112321620,-1.253839,-9.954143,0.2440679,10112321620,0,-0.004886922,0.002443461,10112321620,50.89453
10112323859,-1.2299109,-9.949356,0.24885355,10112323859,0.0012217305,-0.008552114,0.0012217305,10112323859,50.89453
10112326101,-1.2442678,-9.939785,0.2440679,10112326101,0.002443461,-0.010995574,0.0036651916,10112326101,50.910156
10112328340,-1.253839,-9.949356,0.2440679,10112328340,0.0036651916,-0.0061086523,0.0036651916,10112328340,50.910156
10112330579,-1.2442678,-9.944571,0.22492532,10112330579,0.0036651916,-0.007330383,0.004886922,10112330579,50.910156
10112332818,-1.253839,-9.954143,0.22971097,10112332818,0,-0.008552114,0.0036651916,10112332818,50.910156
10112335067,-1.2346965,-9.934999,0.23928227,10112335067,0.002443461,-0.007330383,0.002443461,10112335067,50.910156
10112337306,-1.2490535,-9.944571,0.23928227,10112337306,0.002443461,-0.008552114,0.002443461,10112337306,50.910156
10112339545,-1.2586247,-9.934999,0.22971097,10112339545,0.0012217305,-0.004886922,0.0036651916,10112339545,50.910156
10112341784,-1.253839,-9.939785,0.2440679,10112341784,0.0012217305,-0.007330383,0.0012217305,10112341784,50.910156
10112344402,-1.2634103,-9.939785,0.22492532,10112344402,0.004886922,-0.0061086523,0.004886922,10112344402,50.91797
10112346268,-1.2634103,-9.934999,0.22971097,10112346268,0,-0.004886922,0.0036651916,10112346268,50.91797
10112348507,-1.2394822,-9.958928,0.23449662,10112348507,0.0012217305,-0.007330383,0.002443461,10112348507,50.91797
10112350746,-1.253839,-9.934999,0.23449662,10112350746,0.0012217305,-0.010995574,0.0036651916,10112350746,50.91797
10112352985,-1.2394822,-9.934999,0.21535404,10112352985,0.0012217305,-0.007330383,0.004886922,10112352985,50.91797
10112355246,-1.2299109,-9.930214,0.2536392,10112355246,0.002443461,-0.007330383,0.0036651916,10112355246,50.91797
10112357485,-1.2346965,-9.958928,0.2440679,10112357485,0.002443461,-0.007330383,0.002443461,10112357485,50.91797
10112359724,-1.2251252,-9.949356,0.23928227,10112359724,0,-0.0061086523,0.0036651916,10112359724,50.91797
10112361963,-1.2490535,-9.954143,0.23928227,10112361963,-0.0012217305,-0.0061086523,0.002443461,10112361963,50.902344
10112364432,-1.2394822,-9.944571,0.22013968,10112364432,0,-0.008552114,0.0012217305,10112364432,50.902344
10112366438,-1.2107682,-9.954143,0.22492532,10112366438,0.0036651916,-0.0061086523,0.0036651916,10112366438,50.902344
10112368677,-1.2394822,-9.963714,0.21535404,10112368677,0.0012217305,-0.0061086523,0.004886922,10112368677,50.902344
10112370916,-1.2346965,-9.934999,0.21535404,10112370916,0.0036651916,-0.0061086523,0.002443461,10112370916,50.902344
10112373155,-1.2634103,-9.954143,0.2105684,10112373155,0.002443461,-0.0061086523,0.002443461,10112373155,50.902344
10112375419,-1.2299109,-9.949356,0.21535404,10112375419,0.0036651916,-0.007330383,0.004886922,10112375419,50.902344
10112377658,-1.2346965,-9.944571,0.22013968,10112377658,0.004886922,-0.008552114,0.0036651916,10112377658,50.902344
10112379897,-1.2203395,-9.934999,0.23449662,10112379897,0.004886922,-0.008552114,0.002443461,10112379897,50.875
10112382135,-1.2394822,-9.954143,0.2440679,10112382135,0.0036651916,-0.004886922,0.002443461,10112382135,50.875
10112384440,-1.2442678,-9.968499,0.21535404,10112384440,0.0036651916,-0.004886922,0.0036651916,10112384440,50.875
10112386609,-1.2442678,-9.944571,0.2105684,10112386609,0.0012217305,-0.007330383,0.0036651916,10112386609,50.875
10112388848,-1.253839,-9.954143,0.21535404,10112388848,0,-0.0061086523,0.0036651916,10112388848,50.875
10112391087,-1.2394822,-9.954143,0.21535404,10112391087,0.002443461,-0.004886922,0.0036651916,10112391087,50.875
10112393326,-1.2490535,-9.954143,0.22013968,10112393326,0.002443461,-0.0061086523,0.002443461,10112393326,50.875
10112395582,-1.2442678,-9.954143,0.21535404,10112395582,0.0012217305,-0.0036651916,0.0036651916,10112395582,50.875
10112397821,-1.2586247,-9.939785,0.21535404,10112397821,0.0036651916,-0.007330383,0.002443461,10112397821,50.914062
10112400060,-1.2394822,-9.934999,0.22971097,10112400060,0.002443461,-0.007330383,0.002443461,10112400060,50.914062
10112402299,-1.2490535,-9.949356,0.2105684,10112402299,0.0012217305,-0.004886922,0.002443461,10112402299,50.914062
10112404553,-1.2346965,-9.939785,0.22492532,10112404553,0,-0.007330383,0.002443461,10112404553,50.914062
10112406792,-1.2346965,-9.939785,0.21535404,10112406792,0.002443461,-0.0061086523,0.004886922,10112406792,50.914062
10112409031,-1.2251252,-9.930214,0.22971097,10112409031,0.0036651916,-0.004886922,0.002443461,10112409031,50.914062
10112411270,-1.2490535,-9.939785,0.23449662,10112411270,0.002443461,-0.004886922,0.0012217305,10112411270,50.914062
10112413508,-1.2394822,-9.944571,0.20578274,10112413508,0.002443461,-0.0061086523,0.0036651916,10112413508,50.914062
10112415746,-1.2155539,-9.934999,0.22013968,10112415746,0,-0.007330383,0.004886922,10112415746,50.933594
10112417984,-1.2442678,-9.934999,0.21535404,10112417984,0.002443461,-0.004886922,0.002443461,10112417984,50.933594
10112420223,-1.2346965,-9.925428,0.22971097,10112420223,0.002443461,-0.0061086523,0.0012217305,10112420223,50.933594
10112422462,-1.253839,-9.939785,0.21535404,10112422462,0.0012217305,-0.004886922,0.002443461,10112422462,50.933594
10112424702,-1.2394822,-9.958928,0.22492532,10112424702,0,-0.0036651916,0.004886922,10112424702,50.933594
10112426941,-1.2490535,-9.954143,0.23449662,10112426941,0.0012217305,-0.002443461,0.0036651916,10112426941,50.933594
10112429180,-1.2586247,-9.944571,0.23928227,10112429180,0.0012217305,-0.0012217305,0.004886922,10112429180,50.933594
10112431418,-1.2442678,-9.930214,0.23449662,10112431418,0.0012217305,-0.007330383,0.004886922,10112431418,50.933594
10112433657,-1.2346965,-9.944571,0.22013968,10112433657,0,-0.0061086523,0.0061086523,10112433657,50.902344
10112435920,-1.2490535,-9.939785,0.22013968,10112435920,-0.002443461,-0.004886922,0.002443461,10112435920,50.902344
10112438159,-1.2442678,-9.925428,0.22492532,10112438159,0.0012217305,-0.007330383,0.0012217305,10112438159,50.902344
10112440398,-1.2394822,-9.944571,0.22013968,10112440398,0.0012217305,-0.004886922,0.0036651916,10112440398,50.902344
10112442637,-1.2442678,-9.944571,0.2105684,10112442637,0,-0.0036651916,0.0036651916,10112442637,50.902344
10112444870,-1.2299109,-9.944571,0.21535404,10112444870,0.0012217305,-0.002443461,0.0012217305,10112444870,50.902344
10112447109,-1.2442678,-9.963714,0.22492532,10112447109,0.0036651916,-0.002443461,0.002443461,10112447109,50.902344
10112449348,-1.2346965,-9.944571,0.22971097,10112449348,0.002443461,-0.004886922,0.0036651916,10112449348,50.902344
10112451586,-1.253839,-9.944571,0.2105684,10112451586,0.0012217305,-0.004886922,0.002443461,10112451586,50.882812
10112453825,-1.2299109,-9.949356,0.22971097,10112453825,0.002443461,-0.0036651916,0.002443461,10112453825,50.882812
10112456085,-1.2299109,-9.944571,0.22971097,10112456085,0.0012217305,-0.0012217305,0.002443461,10112456085,50.882812
10112458323,-1.2251252,-9.949356,0.21535404,10112458323,0.002443461,-0.0036651916,0.002443461,10112458323,50.882812
10112460562,-1.2394822,-9.944571,0.22492532,10112460562,0.002443461,-0.004886922,0.002443461,10112460562,50.882812
10112462801,-1.2634103,-9.944571,0.22971097,10112462801,0.0012217305,-0.007330383,0.0036651916,10112462801,50.882812
10112465034,-1.2203395,-9.930214,0.21535404,10112465034,0.002443461,-0.007330383,0.0061086523,10112465034,50.882812
10112467273,-1.2394822,-9.944571,0.22492532,10112467273,0.002443461,-0.007330383,0.0036651916,10112467273,50.882812
10112469512,-1.268196,-9.949356,0.22492532,10112469512,0.0012217305,-0.004886922,0.002443461,10112469512,50.914062
10112471751,-1.2490535,-9.934999,0.2105684,10112471751,0,-0.002443461,0.0012217305,10112471751,50.914062
10112474436,-1.2346965,-9.954143,0.23449662,10112474436,0.0012217305,-0.004886922,0.0012217305,10112474436,50.914062
10112476256,-1.2251252,-9.944571,0.22971097,10112476256,0.0036651916,-0.007330383,0.002443461,10112476256,50.914062
10112478494,-1.2490535,-9.939785,0.23449662,10112478494,-0.0012217305,-0.0012217305,0.0036651916,10112478494,50.914062
10112480733,-1.2442678,-9.930214,0.23449662,10112480733,0.0012217305,-0.002443461,0.0036651916,10112480733,50.914062
10112482972,-1.268196,-9.939785,0.22971097,10112482972,0.0012217305,-0.004886922,0.0012217305,10112482972,50.914062
10112485204,-1.268196,-9.934999,0.23449662,10112485204,0.002443461,-0.0036651916,0.002443461,10112485204,50.914062
10112487443,-1.2490535,-9.949356,0.23928227,10112487443,0.0012217305,-0.004886922,0.0012217305,10112487443,50.88672
10112489682,-1.253839,-9.949356,0.25842485,10112489682,0.002443461,-0.0061086523,0.004886922,10112489682,50.88672
10112491921,-1.2442678,-9.944571,0.23449662,10112491921,0,-0.004886922,0.0036651916,10112491921,50.88672
10112494436,-1.2251252,-9.934999,0.23449662,10112494436,0.0012217305,-0.0036651916,0.002443461,10112494436,50.88672
10112496419,-1.2203395,-9.934999,0.2440679,10112496419,0.002443461,-0.0012217305,0.0036651916,10112496419,50.88672
10112498658,-1.2203395,-9.944571,0.23928227,10112498658,0.0036651916,-0.0036651916,0.0036651916,10112498658,50.88672
10112500896,-1.2490535,-9.939785,0.22971097,10112500896,0.0036651916,-0.002443461,0.0036651916,10112500896,50.88672
10112503135,-1.2442678,-9.944571,0.24885355,10112503135,0.002443461,-0.004886922,0.002443461,10112503135,50.88672
10112505379,-1.2299109,-9.944571,0.23449662,10112505379,0.0012217305,-0.0061086523,0.002443461,10112505379,50.910156
10112507618,-1.2394822,-9.930214,0.22492532,10112507618,0.002443461,-0.0036651916,0.004886922,10112507618,50.910156
10112509857,-1.2442678,-9.944571,0.23449662,10112509857,0,-0.004886922,0.0036651916,10112509857,50.910156
10112512096,-1.2299109,-9.958928,0.23449662,10112512096,-0.0012217305,-0.0036651916,0.002443461,10112512096,50.910156
10112514437,-1.253839,-9.954143,0.23449662,10112514437,0.0012217305,-0.0061086523,0.0036651916,10112514437,50.910156
10112516583,-1.253839,-9.954143,0.24885355,10112516583,0.004886922,-0.007330383,0.0012217305,10112516583,50.910156
10112518822,-1.2394822,-9.939785,0.22013968,10112518822,0.002443461,-0.004886922,0.0036651916,10112518822,50.910156
10112521061,-1.2490535,-9.944571,0.23449662,10112521061,0.0012217305,-0.0036651916,0.0036651916,10112521061,50.910156
10112523299,-1.2346965,-9.954143,0.22971097,10112523299,0.0012217305,-0.0061086523,0.004886922,10112523299,50.89453
10112525535,-1.2346965,-9.949356,0.23928227,10112525535,0.002443461,-0.007330383,0.002443461,10112525535,50.89453
10112527774,-1.2394822,-9.925428,0.2440679,10112527774,0.002443461,-0.007330383,0.002443461,10112527774,50.89453
10112530013,-1.2394822,-9.944571,0.24885355,10112530013,0.0036651916,-0.004886922,0.0036651916,10112530013,50.89453
10112532251,-1.2394822,-9.958928,0.22971097,10112532251,0.0012217305,-0.0061086523,0.0036651916,10112532251,50.89453
10112534517,-1.2442678,-9.954143,0.22971097,10112534517,0.0012217305,-0.004886922,0.0036651916,10112534517,50.89453
10112536756,-1.2394822,-9.954143,0.23449662,10112536756,0.0012217305,-0.002443461,0.002443461,10112536756,50.89453
10112538995,-1.2442678,-9.944571,0.23928227,10112538995,0,-0.004886922,0.0036651916,10112538995,50.89453
10112541234,-1.253839,-9.954143,0.23449662,10112541234,0.002443461,-0.004886922,0.004886922,10112541234,50.902344
10112543472,-1.2394822,-9.949356,0.24885355,10112543472,0.002443461,-0.0012217305,0.0061086523,10112543472,50.902344
10112545713,-1.2251252,-9.939785,0.22971097,10112545713,0.002443461,-0.008552114,0.004886922,10112545713,50.902344
10112547951,-1.2490535,-9.949356,0.22971097,10112547951,0.002443461,-0.0061086523,0.0036651916,10112547951,50.902344
10112550190,-1.2634103,-9.939785,0.23928227,10112550190,0.002443461,-0.0036651916,0.0012217305,10112550190,50.902344
10112552429,-1.2442678,-9.949356,0.24885355,10112552429,0.004886922,-0.008552114,0.002443461,10112552429,50.902344
10112554683,-1.2490535,-9.944571,0.2440679,10112554683,0.002443461,-0.004886922,0.002443461,10112554683,50.902344
10112556922,-1.2490535,-9.949356,0.24885355,10112556922,0.002443461,-0.007330383,0.0036651916,10112556922,50.902344
10112559161,-1.2394822,-9.958928,0.22492532,10112559161,0.0012217305,-0.008552114,0.0012217305,10112559161,50.902344
10112561400,-1.2442678,-9.944571,0.22013968,10112561400,0,-0.002443461,0.0036651916,10112561400,50.902344
10112563639,-1.2394822,-9.939785,0.23928227,10112563639,0.002443461,-0.0036651916,0.002443461,10112563639,50.902344
10112565869,-1.2394822,-9.925428,0.24885355,10112565869,0.004886922,-0.0061086523,0.002443461,10112565869,50.902344
10112568108,-1.2346965,-9.944571,0.22971097,10112568108,0.0036651916,-0.0061086523,0.0036651916,10112568108,50.902344
10112570346,-1.2394822,-9.954143,0.23449662,10112570346,0.0036651916,-0.0061086523,0.0036651916,10112570346,50.902344
10112572585,-1.2490535,-9.949356,0.22492532,10112572585,0.002443461,-0.0061086523,0.004886922,10112572585,50.902344
10112574845,-1.2442678,-9.944571,0.22492532,10112574845,0.0012217305,-0.0061086523,0.0036651916,10112574845,50.902344
10112577083,-1.2346965,-9.939785,0.22492532,10112577083,0.0012217305,-0.0036651916,0.002443461,10112577083,50.902344
10112579322,-1.2394822,-9.944571,0.22971097,10112579322,0.0012217305,-0.007330383,0.004886922,10112579322,50.902344
10112581561,-1.2299109,-9.949356,0.23928227,10112581561,0.002443461,-0.0036651916,0.004886922,10112581561,50.902344
10112583800,-1.2442678,-9.944571,0.2440679,10112583800,0.0012217305,-0.0036651916,0.002443461,10112583800,50.902344
10112586036,-1.2442678,-9.954143,0.21535404,10112586036,0,-0.007330383,0.0012217305,10112586036,50.902344
10112588275,-1.2442678,-9.934999,0.2632105,10112588275,0.0036651916,-0.004886922,0.002443461,10112588275,50.902344
10112590514,-1.2442678,-9.944571,0.23449662,10112590514,0.0036651916,-0.0036651916,0.0036651916,10112590514,50.902344
10112592752,-1.2299109,-9.934999,0.23449662,10112592752,0.0012217305,-0.0061086523,0.0036651916,10112592752,50.902344
10112595010,-1.2442678,-9.954143,0.2440679,10112595010,0.004886922,-0.007330383,0.002443461,10112595010,50.88672
10112597249,-1.2394822,-9.954143,0.24885355,10112597249,0,-0.0061086523,0.002443461,10112597249,50.88672
10112599487,-1.2346965,-9.939785,0.2440679,10112599487,0.002443461,-0.004886922,0.0036651916,10112599487,50.88672
10112601726,-1.2394822,-9.944571,0.23449662,10112601726,0.0036651916,-0.0061086523,0.0036651916,10112601726,50.88672
10112604436,-1.2155539,-9.949356,0.23928227,10112604436,0,-0.0061086523,0.002443461,10112604436,50.88672
10112606209,-1.2346965,-9.944571,0.21535404,10112606209,0.0012217305,-0.004886922,0,10112606209,50.88672
10112608448,-1.2299109,-9.954143,0.25842485,10112608448,0.0036651916,-0.0036651916,0.002443461,10112608448,50.88672
10112610687,-1.2394822,-9.934999,0.23449662,10112610687,0.0012217305,-0.0036651916,0.0036651916,10112610687,50.88672
10112612925,-1.2346965,-9.944571,0.23449662,10112612925,0.0012217305,-0.0061086523,0.0036651916,10112612925,50.902344
10112615174,-1.2394822,-9.939785,0.2440679,10112615174,0.002443461,-0.007330383,0.002443461,10112615174,50.902344
10112617413,-1.2490535,-9.939785,0.23449662,10112617413,0.0012217305,-0.0036651916,0.002443461,10112617413,50.902344
10112619652,-1.2155539,-9.944571,0.22492532,10112619652,0.0036651916,-0.004886922,0.0036651916,10112619652,50.902344
10112621891,-1.2490535,-9.958928,0.23928227,10112621891,0.0012217305,-0.007330383,0.0036651916,10112621891,50.902344
10112624410,-1.2394822,-9.944571,0.21535404,10112624410,0.0012217305,-0.0036651916,0.0012217305,10112624410,50.902344
10112626393,-1.2346965,-9.939785,0.22013968,10112626393,0.002443461,-0.004886922,0.0036651916,10112626393,50.902344
10112628632,-1.2442678,-9.944571,0.23928227,10112628632,0.0012217305,-0.007330383,0.0036651916,10112628632,50.902344
10112630870,-1.2299109,-9.934999,0.23928227,10112630870,0.0036651916,-0.004886922,0.002443461,10112630870,50.92578
10112633109,-1.2442678,-9.939785,0.25842485,10112633109,0.002443461,-0.0061086523,0.002443461,10112633109,50.92578
10112635338,-1.2394822,-9.944571,0.24885355,10112635338,0.0036651916,-0.0036651916,0.0012217305,10112635338,50.92578
10112637577,-1.2251252,-9.944571,0.23928227,10112637577,0.0012217305,-0.002443461,0.0036651916,10112637577,50.92578
10112639816,-1.2394822,-9.944571,0.23928227,10112639816,0.0012217305,-0.0061086523,0.0036651916,10112639816,50.92578
10112642055,-1.2394822,-9.944571,0.22971097,10112642055,0.0012217305,-0.004886922,0.0036651916,10112642055,50.92578
10112644396,-1.2346965,-9.958928,0.25842485,10112644396,0.0012217305,-0.002443461,0.002443461,10112644396,50.92578
10112646542,-1.2586247,-9.944571,0.23449662,10112646542,-0.0012217305,-0.002443461,0.004886922,10112646542,50.92578
10112648781,-1.2586247,-9.934999,0.2440679,10112648781,0.0036651916,-0.004886922,0.0036651916,10112648781,50.83203
10112651020,-1.253839,-9.939785,0.22492532,10112651020,0.0036651916,-0.0036651916,0.0036651916,10112651020,50.83203
10112653258,-1.2490535,-9.949356,0.23928227,10112653258,0.0012217305,-0.0036651916,0.002443461,10112653258,50.83203
10112655503,-1.2394822,-9.954143,0.23928227,10112655503,0.0036651916,-0.0036651916,0.002443461,10112655503,50.83203
10112657741,-1.2299109,-9.934999,0.2632105,10112657741,0.002443461,-0.009773844,0.004886922,10112657741,50.83203
10112659980,-1.2394822,-9.949356,0.2536392,10112659980,0.002443461,-0.0036651916,0.004886922,10112659980,50.83203
10112662219,-1.2346965,-9.949356,0.24885355,10112662219,0.0036651916,-0.0012217305,0.0036651916,10112662219,50.83203
10112664472,-1.2394822,-9.949356,0.2440679,10112664472,0.0036651916,-0.004886922,0.002443461,10112664472,50.83203
10112666711,-1.253839,-9.954143,0.24885355,10112666711,0.002443461,-0.008552114,0.0036651916,10112666711,50.921875
10112668950,-1.2490535,-9.963714,0.2440679,10112668950,0,-0.0061086523,0.0036651916,10112668950,50.921875
10112671189,-1.253839,-9.930214,0.23449662,10112671189,-0.002443461,-0.004886922,0.0012217305,10112671189,50.921875
10112673428,-1.2394822,-9.930214,0.23928227,10112673428,0.002443461,-0.002443461,0.0012217305,10112673428,50.921875
10112675687,-1.253839,-9.939785,0.24885355,10112675687,0.004886922,-0.002443461,0.0036651916,10112675687,50.921875
10112677926,-1.2442678,-9.949356,0.2632105,10112677926,0.004886922,-0.0036651916,0.0061086523,10112677926,50.921875
10112680165,-1.2394822,-9.925428,0.23928227,10112680165,0,-0.007330383,0.004886922,10112680165,50.921875
10112682404,-1.2394822,-9.949356,0.23449662,10112682404,0.0012217305,-0.004886922,0.0012217305,10112682404,50.921875
10112684654,-1.2346965,-9.954143,0.24885355,10112684654,0,-0.004886922,0.0012217305,10112684654,50.89453
10112686893,-1.2299109,-9.944571,0.2727818,10112686893,-0.0012217305,-0.002443461,0.002443461,10112686893,50.89453
10112689132,-1.2394822,-9.954143,0.26799613,10112689132,0.002443461,-0.0036651916,0.004886922,10112689132,50.89453
10112691370,-1.2394822,-9.939785,0.23449662,10112691370,0.0036651916,-0.002443461,0.002443461,10112691370,50.89453
10112693609,-1.2442678,-9.944571,0.22492532,10112693609,0,-0.0036651916,0.004886922,10112693609,50.89453
10112695852,-1.2394822,-9.954143,0.2440679,10112695852,-0.0012217305,-0.0036651916,0.002443461,10112695852,50.89453
10112698091,-1.2346965,-9.949356,0.23928227,10112698091,0.002443461,-0.0061086523,0.0036651916,10112698091,50.89453
10112700330,-1.2394822,-9.944571,0.25842485,10112700330,0.0012217305,-0.0061086523,0.002443461,10112700330,50.89453
10112702569,-1.2442678,-9.944571,0.25842485,10112702569,0,-0.002443461,0.0036651916,10112702569,50.910156
10112704816,-1.2442678,-9.954143,0.2536392,10112704816,0.0012217305,-0.004886922,0.0036651916,10112704816,50.910156
10112707054,-1.2346965,-9.939785,0.2536392,10112707054,0.002443461,-0.007330383,0.0036651916,10112707054,50.910156
10112709293,-1.2490535,-9.934999,0.23928227,10112709293,0.0012217305,-0.007330383,0.002443461,10112709293,50.910156
10112711532,-1.2442678,-9.949356,0.2536392,10112711532,0.002443461,-0.007330383,0.002443461,10112711532,50.910156
10112713771,-1.2251252,-9.944571,0.24885355,10112713771,-0.002443461,-0.007330383,0.0012217305,10112713771,50.910156
10112716025,-1.2299109,-9.944571,0.2632105,10112716025,0,-0.004886922,0.002443461,10112716025,50.910156
10112718264,-1.2394822,-9.930214,0.2440679,10112718264,0.002443461,-0.004886922,0.0036651916,10112718264,50.910156
10112720503,-1.2394822,-9.949356,0.24885355,10112720503,0.0036651916,-0.008552114,0.0036651916,10112720503,50.910156
10112722742,-1.2442678,-9.949356,0.23928227,10112722742,0,-0.009773844,0.002443461,10112722742,50.910156
10112724980,-1.253839,-9.949356,0.22971097,10112724980,0.0012217305,-0.004886922,0.002443461,10112724980,50.910156
10112727219,-1.2442678,-9.949356,0.25842485,10112727219,0.002443461,0.0012217305,0.002443461,10112727219,50.910156
10112729457,-1.2346965,-9.954143,0.26799613,10112729457,0.004886922,-0.004886922,0.0036651916,10112729457,50.910156
10112731696,-1.2490535,-9.944571,0.23928227,10112731696,0.0061086523,-0.009773844,0.0036651916,10112731696,50.910156
10112734399,-1.2299109,-9.949356,0.22971097,10112734399,0.002443461,-0.009773844,0.0036651916,10112734399,50.910156
10112736172,-1.253839,-9.963714,0.23449662,10112736172,-0.0012217305,-0.0061086523,0.002443461,10112736172,50.910156
10112738411,-1.2346965,-9.958928,0.2536392,10112738411,-0.0012217305,0.002443461,0.0036651916,10112738411,50.867188
10112740650,-1.2394822,-9.930214,0.23928227,10112740650,0.0012217305,-0.002443461,0.002443461,10112740650,50.867188
10112742888,-1.2490535,-9.930214,0.22971097,10112742888,0.0012217305,-0.008552114,0.0036651916,10112742888,50.867188
10112745153,-1.2155539,-9.958928,0.2440679,10112745153,0.0036651916,-0.013439035,0.0061086523,10112745153,50.867188
10112747392,-1.2586247,-9.944571,0.2440679,10112747392,0.0036651916,-0.009773844,0.002443461,10112747392,50.867188
10112749630,-1.2346965,-9.934999,0.25842485,10112749630,0.0012217305,-0.008552114,0.002443461,10112749630,50.867188
10112751869,-1.2299109,-9.944571,0.24885355,10112751869,0,-0.007330383,0.0012217305,10112751869,50.867188
10112754404,-1.2346965,-9.939785,0.2440679,10112754404,0,-0.0036651916,0.0036651916,10112754404,50.867188
10112756340,-1.2346965,-9.939785,0.24885355,10112756340,0.0061086523,-0.014660766,0.0061086523,10112756340,50.86328
10112758579,-1.2203395,-9.920643,0.22492532,10112758579,0.004886922,-0.012217305,0.004886922,10112758579,50.86328
10112760818,-1.2490535,-9.934999,0.23928227,10112760818,0.0012217305,-0.0061086523,0.0036651916,10112760818,50.86328
10112763057,-1.2442678,-9.944571,0.22013968,10112763057,0.0012217305,-0.004886922,0.002443461,10112763057,50.86328
10112765309,-1.2251252,-9.949356,0.24885355,10112765309,0.0012217305,-0.0036651916,0.002443461,10112765309,50.86328
10112767548,-1.2394822,-9.939785,0.23928227,10112767548,0.0012217305,-0.0036651916,0.0036651916,10112767548,50.86328
10112769787,-1.253839,-9.944571,0.22971097,10112769787,0.0012217305,-0.0061086523,0.002443461,10112769787,50.86328
10112772026,-1.2346965,-9.949356,0.2440679,10112772026,-0.0012217305,-0.004886922,0.002443461,10112772026,50.86328
10112774401,-1.2299109,-9.934999,0.22013968,10112774401,0.0012217305,-0.007330383,0,10112774401,50.929688
10112776524,-1.2490535,-9.939785,0.23928227,10112776524,0.0012217305,-0.009773844,0.0036651916,10112776524,50.929688
10112778763,-1.253839,-9.963714,0.23928227,10112778763,0,-0.007330383,0.0036651916,10112778763,50.929688
10112781001,-1.2442678,-9.944571,0.22971097,10112781001,-0.002443461,-0.008552114,0.0012217305,10112781001,50.929688
10112783240,-1.253839,-9.934999,0.22013968,10112783240,0,-0.0061086523,0.002443461,10112783240,50.929688
10112785478,-1.2442678,-9.944571,0.22971097,10112785478,-0.0012217305,-0.0061086523,0.004886922,10112785478,50.929688
10112787717,-1.2394822,-9.939785,0.22971097,10112787717,0.002443461,-0.004886922,0.002443461,10112787717,50.929688
10112789956,-1.2394822,-9.934999,0.23449662,10112789956,-0.002443461,-0.0061086523,0.002443461,10112789956,50.929688
10112792195,-1.2394822,-9.934999,0.22492532,10112792195,0.002443461,-0.008552114,0.0036651916,10112792195,50.976562
10112794438,-1.2346965,-9.930214,0.21535404,10112794438,0.0012217305,-0.007330383,0.0036651916,10112794438,50.976562
10112796676,-1.2346965,-9.944571,0.2440679,10112796676,0.0036651916,-0.007330383,0.0036651916,10112796676,50.976562
10112798915,-1.2394822,-9.930214,0.21535404,10112798915,0.002443461,-0.007330383,0.0036651916,10112798915,50.976562
10112801154,-1.253839,-9.954143,0.22971097,10112801154,0.002443461,-0.007330383,0.002443461,10112801154,50.976562
10112803393,-1.2346965,-9.939785,0.22971097,10112803393,0.002443461,-0.008552114,0.002443461,10112803393,50.976562
10112805648,-1.2346965,-9.949356,0.22013968,10112805648,0.002443461,-0.0061086523,0.002443461,10112805648,50.976562
10112807887,-1.2442678,-9.954143,0.22492532,10112807887,-0.002443461,-0.0061086523,0.0036651916,10112807887,50.976562
10112810126,-1.2394822,-9.949356,0.22492532,10112810126,0.0012217305,-0.007330383,0.002443461,10112810126,50.89453
10112812365,-1.2442678,-9.954143,0.22971097,10112812365,0.002443461,-0.009773844,0.004886922,10112812365,50.89453
10112814603,-1.2346965,-9.944571,0.22492532,10112814603,0.002443461,-0.0061086523,0.0036651916,10112814603,50.89453
10112816842,-1.2394822,-9.930214,0.21535404,10112816842,0.0036651916,-0.008552114,0.0036651916,10112816842,50.89453
10112819080,-1.253839,-9.944571,0.23449662,10112819080,0.0036651916,-0.007330383,0.0036651916,10112819080,50.89453
10112821319,-1.2203395,-9.954143,0.21535404,10112821319,0.002443461,-0.0061086523,0.0036651916,10112821319,50.89453
10112823558,-1.2394822,-9.944571,0.22971097,10112823558,0.0012217305,-0.0061086523,0.0036651916,10112823558,50.89453
10112825825,-1.2346965,-9.954143,0.22971097,10112825825,0.0012217305,-0.0036651916,0.0036651916,10112825825,50.89453
10112828064,-1.2442678,-9.958928,0.22492532,10112828064,0.0012217305,-0.004886922,0.0036651916,10112828064,50.89453
10112830303,-1.2442678,-9.954143,0.23928227,10112830303,0.002443461,-0.0036651916,0.0036651916,10112830303,50.89453
10112832542,-1.2299109,-9.944571,0.22971097,10112832542,0.0012217305,-0.0061086523,0.0036651916,10112832542,50.89453
10112834785,-1.2394822,-9.949356,0.2105684,10112834785,0.002443461,-0.007330383,0.0012217305,10112834785,50.89453
10112837024,-1.2203395,-9.968499,0.22013968,10112837024,0.0012217305,-0.004886922,0.0036651916,10112837024,50.89453
10112839263,-1.2442678,-9.949356,0.23449662,10112839263,0.0012217305,-0.007330383,0.004886922,10112839263,50.89453
10112841502,-1.2394822,-9.949356,0.2536392,10112841502,0.0012217305,-0.0036651916,0.002443461,10112841502,50.89453
10112843741,-1.2346965,-9.949356,0.2009971,10112843741,0.002443461,-0.0036651916,0.004886922,10112843741,50.89453
10112845974,-1.2442678,-9.963714,0.22971097,10112845974,0.0036651916,-0.0061086523,0.004886922,10112845974,50.902344
10112848213,-1.2634103,-9.958928,0.2009971,10112848213,0,-0.0061086523,0.004886922,10112848213,50.902344
10112850451,-1.2442678,-9.934999,0.21535404,10112850451,0.0012217305,-0.0036651916,0.0036651916,10112850451,50.902344
10112852690,-1.2442678,-9.939785,0.22013968,10112852690,0.0036651916,-0.004886922,0.0036651916,10112852690,50.902344
10112854952,-1.2394822,-9.934999,0.23449662,10112854952,0.0036651916,-0.008552114,0.0036651916,10112854952,50.902344
10112857190,-1.2490535,-9.954143,0.22492532,10112857190,0,-0.0061086523,0.0036651916,10112857190,50.902344
10112859429,-1.2442678,-9.944571,0.2440679,10112859429,0.004886922,-0.008552114,0.0061086523,10112859429,50.902344
10112861668,-1.2490535,-9.939785,0.2105684,10112861668,0.0036651916,-0.0036651916,0.0036651916,10112861668,50.902344
10112863907,-1.2442678,-9.944571,0.22492532,10112863907,0.0012217305,-0.0036651916,0.002443461,10112863907,50.910156
10112866154,-1.2394822,-9.934999,0.22492532,10112866154,0.004886922,-0.0036651916,0.002443461,10112866154,50.910156
10112868392,-1.2394822,-9.944571,0.21535404,10112868392,0.0036651916,-0.004886922,0.002443461,10112868392,50.910156
10112870631,-1.2299109,-9.934999,0.24885355,10112870631,0,-0.002443461,0.002443461,10112870631,50.910156
10112872870,-1.2203395,-9.949356,0.23449662,10112872870,0.002443461,-0.0036651916,0.002443461,10112872870,50.910156
10112875123,-1.2394822,-9.954143,0.22492532,10112875123,0.0036651916,-0.002443461,0.0036651916,10112875123,50.910156
10112877362,-1.253839,-9.949356,0.21535404,10112877362,0.002443461,-0.007330383,0.0036651916,10112877362,50.910156
10112879601,-1.2299109,-9.939785,0.23449662,10112879601,0.004886922,-0.004886922,0.004886922,10112879601,50.910156
10112881840,-1.2394822,-9.949356,0.23449662,10112881840,0.004886922,-0.0036651916,0.002443461,10112881840,50.92578
10112884438,-1.2299109,-9.944571,0.22971097,10112884438,0.007330383,-0.007330383,0.002443461,10112884438,50.92578
10112886327,-1.2346965,-9.949356,0.25842485,10112886327,0.004886922,-0.0036651916,0.0036651916,10112886327,50.92578
10112888566,-1.2346965,-9.930214,0.25842485,10112888566,0.002443461,-0.002443461,0.002443461,10112888566,50.92578
10112890805,-1.2346965,-9.958928,0.2440679,10112890805,0.0012217305,-0.004886922,0.0036651916,10112890805,50.92578
10112893044,-1.2442678,-9.934999,0.22971097,10112893044,0.002443461,-0.004886922,0.002443461,10112893044,50.92578
10112895280,-1.2394822,-9.954143,0.22971097,10112895280,0.002443461,-0.0012217305,0.0036651916,10112895280,50.92578
10112897519,-1.2251252,-9.934999,0.22971097,10112897519,0.0036651916,-0.0061086523,0.0061086523,10112897519,50.92578
10112899758,-1.2346965,-9.954143,0.21535404,10112899758,0.0036651916,-0.0061086523,0.004886922,10112899758,50.902344
10112901997,-1.253839,-9.949356,0.23449662,10112901997,0.004886922,-0.0012217305,0.004886922,10112901997,50.902344
10112904440,-1.2586247,-9.934999,0.2632105,10112904440,0.004886922,-0.0061086523,0.0036651916,10112904440,50.902344
10112906493,-1.253839,-9.939785,0.21535404,10112906493,0.0036651916,-0.010995574,0,10112906493,50.902344
10112908732,-1.2346965,-9.939785,0.23928227,10112908732,0.002443461,-0.0061086523,0.0012217305,10112908732,50.902344
10112910970,-1.2251252,-9.958928,0.22013968,10112910970,0.002443461,-0.0036651916,0.002443461,10112910970,50.902344
10112913209,-1.2394822,-9.939785,0.22492532,10112913209,0.0012217305,-0.007330383,0.0012217305,10112913209,50.902344
10112915442,-1.253839,-9.920643,0.23449662,10112915442,0.0012217305,-0.004886922,0.002443461,10112915442,50.902344
10112917681,-1.2394822,-9.939785,0.22971097,10112917681,0.0012217305,-0.0036651916,0.0036651916,10112917681,50.92578
10112919920,-1.2442678,-9.930214,0.2105684,10112919920,0.002443461,-0.004886922,0.0036651916,10112919920,50.92578
10112922159,-1.2490535,-9.934999,0.22971097,10112922159,0.002443461,-0.0061086523,0.004886922,10112922159,50.92578
10112924441,-1.253839,-9.968499,0.22492532,10112924441,0.002443461,-0.0036651916,0.004886922,10112924441,50.92578
10112926657,-1.2442678,-9.954143,0.2536392,10112926657,0.002443461,-0.0012217305,0.0036651916,10112926657,50.92578
10112928896,-1.2394822,-9.949356,0.2440679,10112928896,0.002443461,-0.0061086523,0.002443461,10112928896,50.92578
10112931135,-1.2299109,-9.934999,0.23928227,10112931135,0.0012217305,-0.007330383,0.0012217305,10112931135,50.92578
10112933373,-1.2394822,-9.944571,0.23928227,10112933373,0.0012217305,-0.0036651916,0.0036651916,10112933373,50.92578
10112935606,-1.2394822,-9.949356,0.23449662,10112935606,0.0036651916,-0.0061086523,0.0012217305,10112935606,50.941406
10112937844,-1.2346965,-9.963714,0.22013968,10112937844,0.002443461,-0.008552114,0.0036651916,10112937844,50.941406
10112940083,-1.2442678,-9.954143,0.23449662,10112940083,0.002443461,-0.004886922,0.004886922,10112940083,50.941406
10112942322,-1.2251252,-9.949356,0.22971097,10112942322,0.0012217305,-0.004886922,0.004886922,10112942322,50.941406
10112944585,-1.2394822,-9.939785,0.23449662,10112944585,0.0036651916,-0.007330383,0.0036651916,10112944585,50.941406
10112946824,-1.2346965,-9.949356,0.22013968,10112946824,0.004886922,-0.009773844,0.002443461,10112946824,50.941406
10112949063,-1.2251252,-9.968499,0.2105684,10112949063,0.0036651916,-0.0061086523,0.002443461,10112949063,50.941406
10112951302,-1.2346965,-9.963714,0.22013968,10112951302,0.002443461,-0.0061086523,0.0036651916,10112951302,50.941406
10112953541,-1.2490535,-9.954143,0.21535404,10112953541,0.002443461,-0.007330383,0.002443461,10112953541,50.933594
10112955784,-1.2394822,-9.934999,0.22492532,10112955784,0.0012217305,-0.007330383,0.0036651916,10112955784,50.933594
10112958022,-1.2299109,-9.944571,0.2440679,10112958022,0.0012217305,-0.004886922,0.0036651916,10112958022,50.933594
10112960261,-1.2203395,-9.944571,0.23449662,10112960261,0.002443461,-0.0061086523,0.004886922,10112960261,50.933594
10112962500,-1.2251252,-9.949356,0.23449662,10112962500,0.0012217305,-0.007330383,0.002443461,10112962500,50.933594
10112964746,-1.2155539,-9.963714,0.22013968,10112964746,0.0036651916,-0.0061086523,0.002443461,10112964746,50.933594
10112966985,-1.2346965,-9.949356,0.23928227,10112966985,0.002443461,-0.0061086523,0.0012217305,10112966985,50.933594
10112969224,-1.2299109,-9.944571,0.22013968,10112969224,0.0036651916,-0.004886922,0.002443461,10112969224,50.933594
10112971463,-1.2394822,-9.954143,0.22013968,10112971463,0.0036651916,-0.004886922,0.0012217305,10112971463,50.941406
10112973702,-1.2346965,-9.939785,0.23449662,10112973702,0.002443461,-0.007330383,0.002443461,10112973702,50.941406
10112975946,-1.2346965,-9.954143,0.22971097,10112975946,0.002443461,-0.008552114,0.002443461,10112975946,50.941406
10112978185,-1.2346965,-9.954143,0.2536392,10112978185,0.002443461,-0.004886922,0.0036651916,10112978185,50.941406
10112980423,-1.2299109,-9.944571,0.22971097,10112980423,-0.002443461,-0.002443461,0.002443461,10112980423,50.941406
10112982662,-1.2299109,-9.949356,0.22971097,10112982662,-0.0012217305,-0.004886922,0.002443461,10112982662,50.941406
10112984919,-1.2442678,-9.939785,0.22971097,10112984919,0.0036651916,-0.004886922,0.0012217305,10112984919,50.941406
10112987157,-1.2299109,-9.939785,0.22492532,10112987157,0.004886922,-0.007330383,0.0012217305,10112987157,50.941406
10112989396,-1.2346965,-9.954143,0.22013968,10112989396,0.0012217305,-0.008552114,0.002443461,10112989396,50.95703
10112991635,-1.2299109,-9.954143,0.23449662,10112991635,0.0012217305,-0.007330383,0.0012217305,10112991635,50.95703
10112993874,-1.2394822,-9.944571,0.22492532,10112993874,0.002443461,-0.004886922,0.0036651916,10112993874,50.95703
10112996108,-1.2346965,-9.944571,0.22971097,10112996108,0.0036651916,-0.008552114,0.002443461,10112996108,50.95703
10112998347,-1.2346965,-9.954143,0.23928227,10112998347,0.004886922,-0.004886922,0.0012217305,10112998347,50.95703
10113000586,-1.2394822,-9.973285,0.23928227,10113000586,0.0036651916,-0.0036651916,0.002443461,10113000586,50.95703
10113002824,-1.2442678,-9.939785,0.23928227,10113002824,0.0036651916,-0.0061086523,0.002443461,10113002824,50.95703
10113005078,-1.2346965,-9.939785,0.23928227,10113005078,0.0036651916,-0.007330383,0.0012217305,10113005078,50.95703
10113007317,-1.2299109,-9.954143,0.22013968,10113007317,0.0036651916,-0.004886922,0.002443461,10113007317,50.882812
10113009555,-1.253839,-9.949356,0.22492532,10113009555,0.004886922,-0.0061086523,0.004886922,10113009555,50.882812
10113011794,-1.253839,-9.939785,0.22971097,10113011794,0,-0.004886922,0.0036651916,10113011794,50.882812
10113014435,-1.2490535,-9.949356,0.22013968,10113014435,0.002443461,-0.004886922,0.0036651916,10113014435,50.882812
10113016278,-1.2203395,-9.944571,0.21535404,10113016278,0.002443461,-0.002443461,0.0036651916,10113016278,50.882812
10113018517,-1.2346965,-9.944571,0.2105684,10113018517,0.0036651916,-0.0036651916,0.0036651916,10113018517,50.882812
10113020755,-1.2442678,-9.949356,0.21535404,10113020755,0.0061086523,-0.0036651916,0.0036651916,10113020755,50.882812
10113022994,-1.2442678,-9.934999,0.22971097,10113022994,0.0036651916,-0.0036651916,0.002443461,10113022994,50.882812
10113025241,-1.2299109,-9.949356,0.21535404,10113025241,0.002443461,-0.0036651916,0.0036651916,10113025241,50.90625
10113027480,-1.2251252,-9.944571,0.22492532,10113027480,0.0036651916,-0.007330383,0.0012217305,10113027480,50.90625
10113029719,-1.2346965,-9.949356,0.23449662,10113029719,0.002443461,-0.004886922,0.004886922,10113029719,50.90625
10113031958,-1.2299109,-9.944571,0.22492532,10113031958,0.0012217305,-0.004886922,0.002443461,10113031958,50.90625
10113034437,-1.2299109,-9.925428,0.22971097,10113034437,0.002443461,-0.007330383,0.004886922,10113034437,50.90625
10113036443,-1.2490535,-9.939785,0.23449662,10113036443,0.004886922,-0.004886922,0.002443461,10113036443,50.90625
10113038682,-1.2586247,-9.934999,0.22971097,10113038682,0.0061086523,-0.004886922,0.0036651916,10113038682,50.90625
10113040921,-1.2442678,-9.949356,0.2440679,10113040921,0.0061086523,-0.0061086523,0.002443461,10113040921,50.90625
10113043160,-1.2251252,-9.934999,0.22971097,10113043160,0.004886922,-0.007330383,0.002443461,10113043160,50.92578
10113045405,-1.2490535,-9.954143,0.23449662,10113045405,0.0036651916,-0.0061086523,0.0012217305,10113045405,50.92578
10113047644,-1.2299109,-9.939785,0.24885355,10113047644,0.004886922,-0.0036651916,0.0036651916,10113047644,50.92578
10113049883,-1.2634103,-9.939785,0.23928227,10113049883,0,-0.0061086523,0.0036651916,10113049883,50.92578
10113052122,-1.2346965,-9.944571,0.22492532,10113052122,0,-0.0036651916,0.0012217305,10113052122,50.92578
10113054402,-1.2442678,-9.944571,0.23449662,10113054402,0.0012217305,-0.0036651916,0.0036651916,10113054402,50.92578
10113056618,-1.2634103,-9.949356,0.23928227,10113056618,0.0012217305,-0.007330383,0.0036651916,10113056618,50.92578
10113058857,-1.2490535,-9.939785,0.23928227,10113058857,0.0012217305,-0.007330383,0.0036651916,10113058857,50.92578
10113061096,-1.2299109,-9.939785,0.21535404,10113061096,0.004886922,-0.0036651916,0.004886922,10113061096,50.882812
10113063334,-1.2299109,-9.944571,0.23449662,10113063334,0.0036651916,-0.0036651916,0.0036651916,10113063334,50.882812
10113065573,-1.2346965,-9.939785,0.23449662,10113065573,0.0012217305,-0.0036651916,0.0012217305,10113065573,50.882812
10113067811,-1.2251252,-9.944571,0.24885355,10113067811,0.0036651916,-0.0012217305,0.0036651916,10113067811,50.882812
10113070050,-1.2442678,-9.958928,0.23449662,10113070050,0.002443461,-0.0036651916,0.0036651916,10113070050,50.882812
10113072289,-1.2394822,-9.939785,0.2440679,10113072289,0.0012217305,-0.004886922,0.002443461,10113072289,50.882812
10113074543,-1.2346965,-9.954143,0.2440679,10113074543,0.0036651916,-0.002443461,0.002443461,10113074543,50.882812
10113076782,-1.2442678,-9.939785,0.23928227,10113076782,0.002443461,-0.002443461,0.0036651916,10113076782,50.882812
10113079021,-1.2299109,-9.949356,0.2632105,10113079021,0.0036651916,-0.007330383,0.002443461,10113079021,50.890625
10113081260,-1.2490535,-9.954143,0.2536392,10113081260,0.0036651916,-0.002443461,0.002443461,10113081260,50.890625
10113083499,-1.2490535,-9.944571,0.24885355,10113083499,0.002443461,0,0.0012217305,10113083499,50.890625
10113085753,-1.2346965,-9.934999,0.22492532,10113085753,0.0036651916,-0.004886922,0.0036651916,10113085753,50.890625
10113087992,-1.2299109,-9.954143,0.2440679,10113087992,0.0012217305,-0.0036651916,0.0012217305,10113087992,50.890625
10113090231,-1.2490535,-9.963714,0.26799613,10113090231,0.0036651916,-0.002443461,0.002443461,10113090231,50.890625
10113092470,-1.2634103,-9.949356,0.2440679,10113092470,0.002443461,-0.0061086523,0.0036651916,10113092470,50.890625
10113094703,-1.2442678,-9.944571,0.2440679,10113094703,0.002443461,-0.0061086523,0.0036651916,10113094703,50.890625
10113096941,-1.253839,-9.939785,0.22971097,10113096941,0.0036651916,-0.007330383,0.0036651916,10113096941,50.92578
10113099180,-1.2490535,-9.939785,0.23449662,10113099180,0,-0.0036651916,0.004886922,10113099180,50.92578
10113101419,-1.2251252,-9.949356,0.24885355,10113101419,0.0036651916,-0.0036651916,0.0036651916,10113101419,50.92578
10113103658,-1.2394822,-9.958928,0.2536392,10113103658,0.002443461,-0.0036651916,0.004886922,10113103658,50.92578
10113105925,-1.2442678,-9.954143,0.2536392,10113105925,0.002443461,-0.004886922,0.0036651916,10113105925,50.92578
10113108164,-1.2442678,-9.944571,0.24885355,10113108164,0.002443461,-0.0061086523,0.002443461,10113108164,50.92578
10113110403,-1.2442678,-9.939785,0.25842485,10113110403,0.0036651916,-0.004886922,0,10113110403,50.92578
10113112642,-1.2490535,-9.934999,0.24885355,10113112642,0.0012217305,-0.0061086523,0.002443461,10113112642,50.92578
10113114870,-1.2586247,-9.925428,0.25842485,10113114870,0.0012217305,-0.004886922,0.0012217305,10113114870,50.875
10113117109,-1.2442678,-9.963714,0.25842485,10113117109,0.0036651916,-0.0036651916,0.0036651916,10113117109,50.875
10113119348,-1.2203395,-9.958928,0.23928227,10113119348,0.0036651916,-0.004886922,0.004886922,10113119348,50.875
10113121586,-1.2442678,-9.939785,0.2440679,10113121586,0.002443461,-0.0036651916,0.0036651916,10113121586,50.875
10113123825,-1.253839,-9.958928,0.2632105,10113123825,-0.0012217305,-0.008552114,0.002443461,10113123825,50.875
10113126090,-1.2490535,-9.954143,0.2632105,10113126090,0.002443461,-0.008552114,0.002443461,10113126090,50.875
10113128328,-1.253839,-9.944571,0.2727818,10113128328,0.0012217305,-0.004886922,0.002443461,10113128328,50.875
10113130567,-1.2442678,-9.954143,0.24885355,10113130567,0.0036651916,-0.0061086523,0.002443461,10113130567,50.875
10113132806,-1.2442678,-9.939785,0.2632105,10113132806,0.002443461,-0.009773844,0.002443461,10113132806,50.878906
10113135046,-1.2346965,-9.949356,0.24885355,10113135046,0.002443461,-0.0061086523,0.002443461,10113135046,50.878906
10113137285,-1.2346965,-9.944571,0.26799613,10113137285,0.007330383,-0.012217305,0.0036651916,10113137285,50.878906
10113139523,-1.253839,-9.949356,0.25842485,10113139523,0.0061086523,-0.008552114,0.004886922,10113139523,50.878906
10113141762,-1.2394822,-9.944571,0.24885355,10113141762,0.002443461,-0.004886922,0.0036651916,10113141762,50.878906
10113144406,-1.2299109,-9.949356,0.25842485,10113144406,0.0012217305,-0.004886922,0.002443461,10113144406,50.878906
10113146249,-1.2251252,-9.939785,0.2536392,10113146249,0.0012217305,-0.009773844,0.0036651916,10113146249,50.878906
10113148488,-1.2346965,-9.939785,0.25842485,10113148488,0,-0.0061086523,0.0036651916,10113148488,50.878906
10113150726,-1.2251252,-9.949356,0.2632105,10113150726,0.002443461,-0.004886922,0.0036651916,10113150726,50.921875
10113152965,-1.2299109,-9.949356,0.23928227,10113152965,0.0036651916,-0.007330383,0.0036651916,10113152965,50.921875
10113155225,-1.2346965,-9.930214,0.26799613,10113155225,0,-0.007330383,0.0036651916,10113155225,50.921875
10113157464,-1.2299109,-9.954143,0.23928227,10113157464,-0.0012217305,-0.002443461,0.004886922,10113157464,50.921875
10113159702,-1.2251252,-9.954143,0.2440679,10113159702,0,-0.007330383,0.0012217305,10113159702,50.921875
10113161941,-1.2442678,-9.944571,0.23928227,10113161941,0.0012217305,-0.007330383,0.0036651916,10113161941,50.921875
10113164400,-1.2394822,-9.934999,0.22971097,10113164400,0.0012217305,-0.004886922,0.0036651916,10113164400,50.921875
10113166429,-1.2394822,-9.930214,0.24885355,10113166429,0.0012217305,-0.0061086523,0.0036651916,10113166429,50.921875
10113168668,-1.2490535,-9.944571,0.23928227,10113168668,0.002443461,-0.008552114,0.0036651916,10113168668,50.91797
10113170907,-1.2299109,-9.954143,0.23928227,10113170907,0.0012217305,-0.007330383,0.0036651916,10113170907,50.91797
10113173146,-1.2346965,-9.944571,0.23928227,10113173146,0,-0.008552114,0.0036651916,10113173146,50.91797
10113175386,-1.2394822,-9.944571,0.25842485,10113175386,-0.0012217305,-0.007330383,0.0036651916,10113175386,50.91797
10113177625,-1.2586247,-9.958928,0.23449662,10113177625,0,-0.004886922,0.0036651916,10113177625,50.91797
10113179864,-1.2442678,-9.949356,0.2536392,10113179864,0,-0.009773844,0.002443461,10113179864,50.91797
10113182102,-1.2346965,-9.954143,0.24885355,10113182102,0.0012217305,-0.007330383,0.0036651916,10113182102,50.91797
10113184401,-1.2442678,-9.958928,0.23928227,10113184401,0.0036651916,-0.004886922,0.0036651916,10113184401,50.91797
10113186594,-1.2346965,-9.934999,0.23928227,10113186594,0.0012217305,-0.007330383,0.002443461,10113186594,50.910156
10113188832,-1.2346965,-9.944571,0.2440679,10113188832,0.0036651916,-0.007330383,0.002443461,10113188832,50.910156
10113191071,-1.2346965,-9.949356,0.22971097,10113191071,0.0036651916,-0.008552114,0.002443461,10113191071,50.910156
10113193310,-1.2442678,-9.954143,0.24885355,10113193310,0.0012217305,-0.0061086523,0.0036651916,10113193310,50.910156
10113195549,-1.2394822,-9.949356,0.23928227,10113195549,0.0012217305,-0.008552114,0.002443461,10113195549,50.910156
10113197788,-1.2442678,-9.958928,0.24885355,10113197788,0.002443461,-0.007330383,0.002443461,10113197788,50.910156
10113200027,-1.2586247,-9.939785,0.22971097,10113200027,0.002443461,-0.0061086523,0.0036651916,10113200027,50.910156
10113202266,-1.2346965,-9.944571,0.24885355,10113202266,0.002443461,-0.008552114,0.002443461,10113202266,50.910156
10113204519,-1.2442678,-9.939785,0.23928227,10113204519,0,-0.008552114,0.0012217305,10113204519,50.933594
10113206758,-1.253839,-9.939785,0.23928227,10113206758,0,-0.002443461,0.0036651916,10113206758,50.933594
10113208997,-1.2442678,-9.954143,0.23928227,10113208997,0,-0.008552114,0.004886922,10113208997,50.933594
10113211236,-1.2394822,-9.939785,0.2632105,10113211236,0.0036651916,-0.0061086523,0.0012217305,10113211236,50.933594
10113213474,-1.253839,-9.954143,0.24885355,10113213474,0.002443461,-0.0036651916,0.002443461,10113213474,50.933594
10113215710,-1.2346965,-9.944571,0.23928227,10113215710,0.0012217305,-0.004886922,0.0012217305,10113215710,50.933594
10113217948,-1.2442678,-9.958928,0.2440679,10113217948,0.002443461,-0.007330383,0.002443461,10113217948,50.933594
10113220187,-1.2442678,-9.934999,0.23449662,10113220187,-0.0012217305,-0.0036651916,0.0036651916,10113220187,50.933594
10113222426,-1.2586247,-9.949356,0.23449662,10113222426,-0.0012217305,-0.0061086523,0.0036651916,10113222426,50.867188
10113224678,-1.2442678,-9.944571,0.2536392,10113224678,0.002443461,-0.008552114,0.002443461,10113224678,50.867188
10113226917,-1.2394822,-9.934999,0.2632105,10113226917,0.0036651916,-0.007330383,0.0036651916,10113226917,50.867188
10113229155,-1.2394822,-9.939785,0.24885355,10113229155,0,-0.0036651916,0.0036651916,10113229155,50.867188
10113231394,-1.2394822,-9.939785,0.22971097,10113231394,0.002443461,-0.0061086523,0.004886922,10113231394,50.867188
10113233633,-1.253839,-9.944571,0.23449662,10113233633,0.0012217305,-0.0061086523,0.002443461,10113233633,50.867188
10113235886,-1.2442678,-9.954143,0.23449662,10113235886,0.0036651916,-0.007330383,0.0036651916,10113235886,50.867188
10113238125,-1.2394822,-9.949356,0.2440679,10113238125,0.0036651916,-0.007330383,0.0036651916,10113238125,50.867188
10113240364,-1.2394822,-9.954143,0.22492532,10113240364,0.002443461,-0.0061086523,0.0036651916,10113240364,50.921875
10113242603,-1.2251252,-9.930214,0.23449662,10113242603,0.002443461,-0.0061086523,0.0036651916,10113242603,50.921875
10113244856,-1.2394822,-9.944571,0.22492532,10113244856,0.004886922,-0.0036651916,0.0036651916,10113244856,50.921875
10113247095,-1.2442678,-9.939785,0.23928227,10113247095,0.0036651916,-0.007330383,0.0036651916,10113247095,50.921875
10113249334,-1.2394822,-9.954143,0.22013968,10113249334,0,-0.004886922,0.004886922,10113249334,50.921875
10113251573,-1.2394822,-9.949356,0.23449662,10113251573,0.0012217305,-0.0036651916,0.0036651916,10113251573,50.921875
10113253812,-1.2442678,-9.939785,0.21535404,10113253812,0.002443461,-0.004886922,0.002443461,10113253812,50.921875
10113256052,-1.2394822,-9.944571,0.22971097,10113256052,0.0012217305,-0.004886922,0.002443461,10113256052,50.921875
10113258290,-1.2346965,-9.958928,0.21535404,10113258290,0.0036651916,-0.007330383,0.0036651916,10113258290,50.92578
10113260529,-1.2155539,-9.958928,0.22013968,10113260529,0.0036651916,-0.002443461,0.0036651916,10113260529,50.92578
10113262768,-1.2299109,-9.939785,0.2009971,10113262768,0.0012217305,-0.0036651916,0.0036651916,10113262768,50.92578
10113265022,-1.2299109,-9.944571,0.22492532,10113265022,0.0036651916,-0.007330383,0.0061086523,10113265022,50.92578
10113267260,-1.2634103,-9.930214,0.23928227,10113267260,0.004886922,-0.009773844,0.004886922,10113267260,50.92578
10113269499,-1.2394822,-9.944571,0.23449662,10113269499,0.0012217305,-0.007330383,0.0061086523,10113269499,50.92578
10113271738,-1.2346965,-9.939785,0.23928227,10113271738,0,-0.004886922,0.004886922,10113271738,50.92578
10113274400,-1.2394822,-9.958928,0.2440679,10113274400,0.0012217305,-0.004886922,0.0012217305,10113274400,50.92578
10113276220,-1.2490535,-9.958928,0.22013968,10113276220,0.0036651916,-0.007330383,0.0012217305,10113276220,50.89453
10113278458,-1.2346965,-9.944571,0.23928227,10113278458,0.0012217305,-0.0036651916,0.0036651916,10113278458,50.89453
10113280697,-1.2394822,-9.954143,0.23449662,10113280697,0,-0.004886922,0.002443461,10113280697,50.89453
10113282936,-1.2394822,-9.944571,0.22492532,10113282936,0.0012217305,-0.004886922,0.0036651916,10113282936,50.89453
