quaternionTimestamp,quaternionX,quaternionY,quaternionZ,quaternionW,magneticFieldTimestamp,magneticFieldX,magneticFieldY,magneticFieldZ,accelerationTimestamp,accelerationX,accelerationY,accelerationZ,angularSpeedTimestamp,angularSpeedX,angularSpeedY,angularSpeedZ
10062840745,0.6943714,-0.24553645,-0.28620115,0.6129023,10062840745,0.22793654,0.39799285,-0.2952601,10062840745,0.936946,-9.782295,0.8359899,10062840745,0.00015551131,-0.0023483858,-0.00030809827
10062850706,0.69437104,-0.24554542,-0.28620586,0.61289686,10062850706,0.22683927,0.39905018,-0.29287365,10062850706,0.9344965,-9.792672,0.79687065,10062850706,0.00023956224,-0.0005209567,-0.00043085404
10062860293,0.6943671,-0.24554116,-0.2862103,0.612901,10062860293,0.22570641,0.39695486,-0.29532918,10062860293,0.9322829,-9.763743,0.81764877,10062860293,-0.0003657164,-0.0011505531,-0.0007730648
10062870467,0.69436246,-0.24556234,-0.2862142,0.61289597,10062870467,0.22901435,0.39588395,-0.29535842,10062870467,0.93421745,-9.786291,0.82503104,10062870467,0.00051485095,-0.0020384453,0.0009469539
10062880439,0.6943565,-0.24556795,-0.28622448,0.61289567,10062880439,0.23014145,0.39692897,-0.29763857,10062880439,0.95267403,-9.768855,0.8302671,10062880439,7.272046e-05,-0.0016137287,-0.00025314465
10062890423,0.694356,-0.24557275,-0.28622693,0.61289316,10062890423,0.22682434,0.39799902,-0.2929268,10062890423,0.9404483,-9.769829,0.8246584,10062890423,0.00042344164,-0.0019364338,0.00068216026
10062900442,0.69435215,-0.24558017,-0.286226,0.61289495,10062900442,0.22787009,0.39378753,-0.29196075,10062900442,0.93769765,-9.763124,0.84101176,10062900442,0.00084713195,-0.0012853192,0.000889956
10062910651,0.69435513,-0.24559239,-0.28622228,0.61288846,10062910651,0.2267556,0.3937935,-0.28845683,10062910651,0.94801116,-9.762421,0.85365117,10062910651,0.00025740825,-0.0012076739,0.0002791239
10062920558,0.6943568,-0.24559124,-0.2862371,0.61288005,10062920558,0.22568238,0.3959028,-0.29069978,10062920558,0.9604889,-9.756765,0.85911906,10062920558,0.0004011253,-0.0012175292,-0.0010589045
10062930562,0.6943603,-0.24560434,-0.28624785,0.6128658,10062930562,0.2279148,0.396941,-0.29180133,10062930562,0.939175,-9.758253,0.86846155,10062930562,0.0006691506,-0.0018886467,-0.0009532841
10062940478,0.69436365,-0.24560079,-0.28625327,0.612861,10062940478,0.22797899,0.4011461,-0.29393005,10062940478,0.97460675,-9.725177,0.8340921,10062940478,-0.00032508653,-0.0010876628,-0.000252028
10062950390,0.6943623,-0.24559931,-0.28626353,0.6128583,10062950390,0.22904415,0.39798626,-0.29525214,10062950390,0.94621676,-9.760215,0.85645294,10062950390,-0.00079068914,-0.0005061198,-0.00036917534
10062960470,0.69436955,-0.2456018,-0.28626105,0.6128502,10062960470,0.22565943,0.39380118,-0.29431796,10062960470,0.9568502,-9.757551,0.87243843,10062960470,-9.131245e-05,0.0006998386,-0.00013307668
10062970396,0.69437724,-0.24560985,-0.28626144,0.6128381,10062970396,0.22792621,0.39694214,-0.2976545,10062970396,0.9625388,-9.761349,0.85649055,10062970396,-3.9971434e-05,0.0006714305,-0.00016756915
10062980480,0.6943849,-0.24560301,-0.28625304,0.6128361,10062980480,0.22900175,0.39483303,-0.29658216,10062980480,0.936981,-9.761126,0.824629,10062980480,0.001220515,0.0011999309,-0.0007586377
10062990430,0.69438297,-0.2456007,-0.28624958,0.61284083,10062990430,0.22684155,0.39905038,-0.29404426,10062990430,0.9293122,-9.763209,0.82257986,10062990430,-0.0010005403,0.0019938396,-0.0005961945
10063000337,0.69437945,-0.24559867,-0.2862559,0.61284256,10063000337,0.23016211,0.3990304,-0.29284975,10063000337,0.95396787,-9.740714,0.8221774,10063000337,4.0561892e-05,-9.489246e-06,-0.00012109056
10063010544,0.6943764,-0.24559703,-0.2862504,0.61284924,10063010544,0.2290568,0.3990372,-0.29402837,10063010544,0.92044157,-9.780571,0.8505272,10063010544,-0.0011988664,0.001798301,-0.0011706408
10063020335,0.69437456,-0.24560136,-0.28624752,0.61285096,10063020335,0.22904415,0.39798626,-0.29525214,10063020335,0.92796487,-9.78688,0.83601874,10063020335,0.00021239463,0.00047450513,0.00073395297
10063030533,0.69437295,-0.24560449,-0.28624785,0.6128514,10063030533,0.22792621,0.39694214,-0.2976545,10063030533,0.9488516,-9.777715,0.8488621,10063030533,0.0007934859,0.00021196622,-5.9309416e-05
10063040436,0.6943759,-0.24560407,-0.2862511,0.61284673,10063040436,0.22793426,0.39799264,-0.29408947,10063040436,0.9789309,-9.776985,0.8734819,10063040436,0.0013192147,0.0006989436,-0.00013075303
10063050462,0.6943816,-0.24560237,-0.28624576,0.6128434,10063050462,0.22791706,0.39694127,-0.29297197,10063050462,0.9387979,-9.787355,0.8463902,10063050462,-0.0007737959,-0.0011128159,-0.00023489445
10063060401,0.69437975,-0.24560682,-0.2862419,0.61284554,10063060401,0.22683927,0.39905018,-0.29287365,10063060401,0.93431526,-9.785333,0.8358725,10063060401,0.0003339667,-0.00025982875,-8.28756e-05
10063070465,0.69438684,-0.24560338,-0.2862313,0.6128439,10063070465,0.22904873,0.39798668,-0.29759338,10063070465,0.9290708,-9.787596,0.8446593,10063070465,0.0009349948,0.00092371274,-0.00042130984
10063080291,0.69438726,-0.24560149,-0.28621778,0.6128505,10063080291,0.22679687,0.3958969,-0.2942037,10063080291,0.94037884,-9.790054,0.83209175,10063080291,-7.942505e-05,0.0022715284,0.00019632932
10063090951,0.69438607,-0.24559927,-0.28622282,0.61285037,10063090951,0.22790447,0.39589033,-0.29419577,10063090951,0.9757949,-9.784371,0.8472879,10063090951,-0.00057207607,0.00044210348,-0.0013074605
10063100333,0.694389,-0.24559909,-0.28622296,0.6128471,10063100333,0.2278678,0.39378732,-0.2907901,10063100333,0.93858075,-9.761047,0.8701678,10063100333,0.000279353,-0.00041659456,-0.00045612082
10063110551,0.6943884,-0.2455941,-0.2862305,0.61284626,10063110551,0.22677965,0.39484555,-0.2930862,10063110551,0.94459724,-9.755643,0.84249556,10063110551,9.962358e-06,0.00065182056,-0.0011368943
10063120337,0.69438636,-0.24559574,-0.28623286,0.6128467,10063120337,0.22785516,0.39273638,-0.2920139,10063120337,0.95710427,-9.774398,0.8052331,10063120337,-0.00054043066,0.0002924977,8.281134e-05
10063130450,0.69438887,-0.24559295,-0.28622943,0.6128466,10063130450,0.22788268,0.39483848,-0.29073697,10063130450,0.94645303,-9.759206,0.8585314,10063130450,0.00036377087,0.0015406376,6.386265e-05
10063140600,0.6943932,-0.24559243,-0.2862287,0.6128422,10063140600,0.22454266,0.39380687,-0.2896434,10063140600,0.95309854,-9.745182,0.8646407,10063140600,0.0010578334,0.0015443359,-0.0008955514
10063150394,0.6943998,-0.24559326,-0.28622603,0.61283565,10063150394,0.22676247,0.39379412,-0.2919687,10063150394,0.9369872,-9.784312,0.87223023,10063150394,0.0012317933,0.00029587094,-0.00033601373
10063160479,0.6944004,-0.24559273,-0.2862272,0.61283463,10063160479,0.22680718,0.3969476,-0.29180932,10063160479,0.9678686,-9.759401,0.8232444,10063160479,5.1318668e-05,0.0010245591,-0.00054953713
10063170395,0.69439995,-0.24557576,-0.2862206,0.61284506,10063170395,0.22908203,0.40113905,-0.29158083,10063170395,0.97727203,-9.768698,0.8231198,10063170395,-0.00059978385,0.002034218,0.000815765
10063180365,0.694404,-0.24556494,-0.28621387,0.612848,10063180365,0.22788152,0.39378867,-0.2978139,10063180365,0.97968805,-9.767248,0.8216133,10063180365,-0.0003471747,0.001395979,0.0007507475
10063190531,0.69440943,-0.24555962,-0.28621382,0.612844,10063190531,0.2301323,0.3969281,-0.29295605,10063190531,0.98152363,-9.753552,0.8387071,10063190531,0.00025474653,0.0022937516,-0.0002977606
10063200320,0.6944114,-0.24556285,-0.28621373,0.6128404,10063200320,0.22791249,0.3969408,-0.29063073,10063200320,0.94638485,-9.749273,0.8448089,10063200320,0.00014354382,0.001433148,0.0010137782
10063210435,0.6944091,-0.24555828,-0.2862093,0.61284703,10063210435,0.22571903,0.3980058,-0.29410538,10063210435,0.9477066,-9.772008,0.8300435,10063210435,-0.0002759155,-0.00012777932,0.00017458014
10063220443,0.69440514,-0.24555986,-0.28620625,0.61285233,10063220443,0.22795147,0.399044,-0.29520696,10063220443,0.96483356,-9.75095,0.801596,10063220443,0.00077227317,-0.00057774317,0.00032981485
10063230433,0.69439995,-0.24556717,-0.2862122,0.6128524,10063230433,0.23011741,0.3958769,-0.2930092,10063230433,0.94074005,-9.793906,0.81484884,10063230433,0.00036456995,-0.00063310843,0.0011603832
10063240553,0.69439816,-0.2455641,-0.2862096,0.6128569,10063240553,0.22794919,0.3990438,-0.2940363,10063240553,0.954089,-9.770453,0.8392613,10063240553,0.00032032933,-0.0001549013,5.13494e-05
10063250460,0.69439524,-0.24556565,-0.28621158,0.6128587,10063250460,0.22682665,0.39799923,-0.2940974,10063250460,0.94457793,-9.754995,0.8027487,10063250460,-0.00014706608,0.0007137563,0.000120417215
10063260291,0.6943907,-0.24556623,-0.28621325,0.6128629,10063260291,0.22902468,0.3969347,-0.29296404,10063260291,0.95051163,-9.779992,0.8051331,10063260291,0.00038743857,-0.000525007,0.0004921388
10063270583,0.69438314,-0.24556862,-0.28621587,0.6128692,10063270583,0.22905907,0.39903742,-0.295199,10063270583,0.9592694,-9.788642,0.8047761,10063270583,0.00045965426,-0.001767898,7.430464e-05
10063280293,0.69438213,-0.24557099,-0.2862142,0.6128702,10063280293,0.23014718,0.39797926,-0.2929029,10063280293,0.9620067,-9.793718,0.84187615,10063280293,0.00039647147,0.00015980657,2.2837892e-05
10063290462,0.6943842,-0.24557091,-0.28621775,0.61286616,10063290462,0.22904415,0.39798626,-0.29525214,10063290462,0.9371637,-9.775334,0.85088253,10063290462,2.8468668e-05,-0.00041567627,-0.00042848848
10063300442,0.69437736,-0.24557668,-0.28622422,0.61286867,10063300442,0.23011741,0.3958769,-0.2930092,10063300442,0.9535661,-9.772618,0.78937864,10063300442,0.0007069418,-0.0012869667,8.23196e-06
10063310433,0.69437665,-0.24557394,-0.28623068,0.61286753,10063310433,0.22571903,0.3980058,-0.29410538,10063310433,0.9767092,-9.794669,0.8416228,10063310433,0.0009177588,-0.0014694976,-0.00044736732
10063320443,0.69437593,-0.24558409,-0.28623626,0.6128617,10063320443,0.22796635,0.40009516,-0.29515383,10063320443,0.94492185,-9.784797,0.8500404,10063320443,0.00012676977,-0.0018750401,-0.00066946074
10063330445,0.6943786,-0.24559462,-0.28623995,0.6128527,10063330445,0.2290545,0.39903697,-0.29285774,10063330445,0.9205323,-9.768085,0.85365206,10063330445,0.00028897822,-0.0017381748,-0.00029300433
10063340495,0.6943867,-0.24559705,-0.28623384,0.61284536,10063340495,0.22905223,0.39903674,-0.2916871,10063340495,0.96536267,-9.777583,0.87014264,10063340495,0.00068478193,-0.0012252405,5.098339e-05
10063350515,0.6943941,-0.24559526,-0.28622988,0.6128396,10063350515,0.2290843,0.40113932,-0.29275146,10063350515,0.94966537,-9.775166,0.8744935,10063350515,0.0015579555,-0.0012819953,-0.0009904811
10063360359,0.69439733,-0.24559288,-0.28623077,0.6128365,10063360359,0.22791937,0.39694148,-0.29414263,10063360359,0.9544492,-9.768448,0.8234843,10063360359,0.00090388115,-0.00037892256,-8.4195286e-05
10063370503,0.6943987,-0.2455883,-0.2862237,0.61284,10063370503,0.2279251,0.39799172,-0.28940693,10063370503,0.94481593,-9.763071,0.86705506,10063370503,-0.0006568674,-0.0002578562,0.00029882882
10063380364,0.69440174,-0.24559654,-0.286226,0.61283225,10063380364,0.2301323,0.3969281,-0.29295605,10063380364,0.9536717,-9.752003,0.8690653,10063380364,6.328989e-05,0.00077989604,0.000225625
10063390386,0.694411,-0.24559505,-0.2862147,0.61282766,10063390386,0.23010479,0.394826,-0.29423293,10063390386,0.950708,-9.743695,0.8444262,10063390386,0.0010271734,0.00045164023,-0.00029304437
10063400484,0.6944137,-0.2455832,-0.2862085,0.6128322,10063400484,0.22565256,0.3938005,-0.29080608,10063400484,0.95818067,-9.752492,0.8336772,10063400484,-0.0008460507,0.0010336861,6.473996e-05
10063410439,0.69441086,-0.24558228,-0.28620812,0.61283594,10063410439,0.22676018,0.3937939,-0.29079807,10063410439,0.9327873,-9.750914,0.8068453,10063410439,-0.00048422348,1.3643876e-05,-0.00034851767
10063420335,0.6944078,-0.24558166,-0.2862028,0.61284214,10063420335,0.22674756,0.39274296,-0.29202187,10063420335,0.92691123,-9.754076,0.8294394,10063420335,4.5802444e-05,0.0013060737,0.0010649022
10063430680,0.69440454,-0.24558015,-0.28620335,0.6128462,10063430680,0.22677279,0.39484483,-0.28957433,10063430680,0.9585823,-9.745889,0.85817885,10063430680,0.00051257946,-0.00016569905,0.00018536858
10063440299,0.6944029,-0.24557528,-0.2862033,0.61284995,10063440299,0.22682665,0.39799923,-0.2940974,10063440299,0.95960057,-9.773867,0.82651806,10063440299,-0.00013159681,0.00023199059,0.00023141317
10063450576,0.6944032,-0.24558154,-0.2862073,0.61284536,10063450576,0.23016441,0.39903063,-0.29402038,10063450576,0.9614382,-9.748949,0.8437804,10063450576,0.0011734348,-0.00043986738,-0.00036761817
10063460289,0.6944093,-0.24557717,-0.2862042,0.6128416,10063460289,0.23014492,0.397979,-0.29173228,10063460289,0.957281,-9.749754,0.828075,10063460289,0.0011242246,-0.00011530239,-0.00047059264
10063470473,0.6944094,-0.24556793,-0.28620666,0.61284405,10063470473,0.22793078,0.3969426,-0.29999578,10063470473,0.95258844,-9.753774,0.80188376,10063470473,-0.0001299642,-0.00034754165,-0.000120965764
10063480412,0.69439995,-0.2455818,-0.28621584,0.6128448,10063480412,0.22793426,0.39799264,-0.29408947,10063480412,0.95667475,-9.7848,0.82661146,10063480412,0.0017576059,0.0004136702,0.000987581
10063490465,0.69439274,-0.24558471,-0.28621894,0.61285037,10063490465,0.22791937,0.39694148,-0.29414263,10063490465,0.93210477,-9.762118,0.8068283,10063490465,-0.001366864,0.00032096822,0.00032286532
10063500440,0.6943899,-0.24559641,-0.28622296,0.61284715,10063500440,0.22789532,0.39588943,-0.28951323,10063500440,0.9454466,-9.76969,0.86833596,10063500440,-0.00018095225,-0.00044004153,0.00038811378
10063510442,0.69439423,-0.24559309,-0.2862181,0.6128457,10063510442,0.22904645,0.39798647,-0.29642275,10063510442,0.9492087,-9.773079,0.8483259,10063510442,-0.0004966166,-0.0005352134,0.00030606054
10063520341,0.6943995,-0.24558666,-0.28621602,0.61284333,10063520341,0.22681403,0.39694828,-0.2953212,10063520341,0.9320951,-9.7682085,0.8657027,10063520341,0.00082127564,0.000461136,-0.00034200773
10063530670,0.6943988,-0.24558668,-0.28620914,0.6128473,10063530670,0.23015754,0.3990299,-0.29050848,10063530670,0.9497857,-9.79851,0.84437907,10063530670,-0.0006631026,0.00083149783,-0.0005001379
10063540370,0.6944008,-0.2455744,-0.28620657,0.6128512,10063540370,0.22793196,0.39799243,-0.2929188,10063540370,0.9259216,-9.786593,0.8215745,10063540370,-0.000458193,-9.33297e-05,-0.0007456364
10063550393,0.69440466,-0.24557325,-0.286203,0.6128489,10063550393,0.22681403,0.39694828,-0.2953212,10063550393,0.9521105,-9.802675,0.814741,10063550393,0.00036513712,-6.495975e-06,-0.00031815656
10063560479,0.69440866,-0.24556337,-0.28620136,0.6128492,10063560479,0.22901782,0.396934,-0.28945214,10063560479,0.94671005,-9.7811165,0.8145029,10063560479,0.0005528042,0.0009111073,0.00026308466
10063570396,0.694411,-0.24555205,-0.2861912,0.61285585,10063570396,0.23233263,0.39586383,-0.29299325,10063570396,0.96297175,-9.762319,0.8109883,10063570396,0.0002194941,0.0015458679,5.0520524e-05
10063580478,0.6944105,-0.2455514,-0.2861911,0.61285657,10063580478,0.23124221,0.3969217,-0.2941187,10063580478,0.94100076,-9.771524,0.85164434,10063580478,-0.0011954233,0.0014037145,-0.00016587228
10063590775,0.69440866,-0.24554779,-0.28618562,0.6128627,10063590775,0.22899717,0.39483258,-0.29424092,10063590775,0.9550126,-9.757381,0.8015057,10063590775,-0.00020721834,0.0020718528,7.9885125e-05
10063600379,0.6944131,-0.2455421,-0.28618342,0.612861,10063600379,0.22677508,0.39484507,-0.29074496,10063600379,0.96886456,-9.750335,0.85678816,10063600379,-0.0006410433,0.0014152592,-7.559545e-05
10063610551,0.69442046,-0.24553251,-0.2861709,0.6128624,10063610551,0.22900751,0.39588326,-0.29184654,10063610551,0.9422852,-9.762077,0.8112004,10063610551,-0.00060246326,0.0017315047,-0.00038479175
10063620344,0.69442046,-0.24552758,-0.28617358,0.61286306,10063620344,0.22565486,0.3938007,-0.29197672,10063620344,0.9636157,-9.744943,0.81448084,10063620344,0.00030052103,0.0008485317,1.05453655e-05
10063630679,0.69441396,-0.24552453,-0.28618008,0.61286867,10063630679,0.22566976,0.39485186,-0.29192355,10063630679,0.9683212,-9.736601,0.8288749,10063630679,-0.0009007035,0.00032420922,-0.00024899002
10063640309,0.69441664,-0.24551742,-0.28618142,0.6128678,10063640309,0.22572131,0.39800602,-0.29527602,10063640309,0.95712215,-9.764335,0.81841516,10063640309,0.0006955946,0.0011767726,-0.00015292875
10063650469,0.6944186,-0.2455126,-0.28619066,0.6128632,10063650469,0.22565256,0.3938005,-0.29080608,10063650469,0.96612316,-9.748757,0.8309139,10063650469,-0.00015019532,-0.000873263,0.00027133152
10063660413,0.6944198,-0.24551363,-0.28618976,0.61286193,10063660413,0.22791706,0.39694127,-0.29297197,10063660413,0.9495717,-9.765997,0.8346786,10063660413,6.253831e-05,0.00069179013,-0.00040270016
10063670476,0.6944207,-0.24550891,-0.28618786,0.6128636,10063670476,0.22454724,0.3938073,-0.29198468,10063670476,0.9576671,-9.764524,0.8041358,10063670476,0.00034261402,0.0002290057,-0.00021769293
10063680288,0.6944164,-0.24551086,-0.28619584,0.612864,10063680288,0.23014718,0.39797926,-0.2929029,10063680288,0.9655893,-9.779564,0.827631,10063680288,0.0004084017,0.00025569648,-0.0004982669
10063690576,0.694422,-0.2455066,-0.28619438,0.61286,10063690576,0.23124449,0.39692193,-0.29528937,10063690576,0.95332026,-9.766119,0.82548106,10063690576,2.1811575e-06,-0.0005457634,-0.000322273
10063700298,0.69441426,-0.2455158,-0.28620884,0.6128584,10063700298,0.23129953,0.40112615,-0.29273552,10063700298,0.96007246,-9.774331,0.8162955,10063700298,-8.522626e-05,-0.0019129002,-0.00041361246
10063710590,0.69441015,-0.24551836,-0.28621045,0.6128612,10063710590,0.22791937,0.39694148,-0.29414263,10063710590,0.9622064,-9.753573,0.80272645,10063710590,0.0003394289,-0.0012590373,0.0005855728
10063720338,0.69440454,-0.24552557,-0.28621992,0.61286026,10063720338,0.22683927,0.39905018,-0.29287365,10063720338,0.9443256,-9.782998,0.83219695,10063720338,-0.00065507554,-0.0021788487,0.00012490992
10063730561,0.6943986,-0.24553148,-0.28622618,0.6128617,10063730561,0.22904415,0.39798626,-0.29525214,10063730561,0.95474756,-9.75332,0.7959477,10063730561,0.00013223756,-0.0010479717,0.00019332208
10063740474,0.69439334,-0.24553926,-0.28623435,0.6128608,10063740474,0.22902468,0.3969347,-0.29296404,10063740474,0.9365734,-9.790616,0.7988757,10063740474,0.00029416848,-0.0009916564,0.00041089486
10063750395,0.6943912,-0.2455447,-0.2862343,0.61286104,10063750395,0.22794919,0.3990438,-0.2940363,10063750395,0.933738,-9.773788,0.84764594,10063750395,-8.509308e-05,-0.001389646,0.00032051653
10063760487,0.6943925,-0.24554414,-0.28622892,0.61286235,10063760487,0.22794919,0.3990438,-0.2940363,10063760487,0.9277463,-9.767134,0.8190207,10063760487,0.0011003409,-0.0011254055,-0.0010248786
10063770395,0.694395,-0.2455506,-0.28623015,0.61285627,10063770395,0.22567433,0.39485234,-0.29426482,10063770395,0.9493793,-9.78408,0.8403668,10063770395,0.001878636,-0.00010444317,0.00060080085
10063780364,0.69438994,-0.24556153,-0.28623462,0.6128555,10063780364,0.23013459,0.3969283,-0.2941267,10063780364,0.9604908,-9.786274,0.8597963,10063780364,0.00021280535,0.000119846314,0.00065301824
10063790499,0.694392,-0.24556892,-0.28623617,0.61284953,10063790499,0.22679456,0.3958967,-0.29303306,10063790499,0.9528776,-9.808889,0.8650308,10063790499,1.8310733e-05,-0.0006947657,0.0006150985
10063800369,0.69439197,-0.24557509,-0.28623894,0.61284584,10063800369,0.22794689,0.3990436,-0.2928657,10063800369,0.9464424,-9.783137,0.83359313,10063800369,9.301305e-05,-0.00022080727,-0.00013028365
10063810396,0.69438845,-0.24557076,-0.28624046,0.6128509,10063810396,0.22791706,0.39694127,-0.29297197,10063810396,0.94437206,-9.764046,0.80639243,10063810396,0.00050231535,-0.00037484057,-0.000872246
10063820483,0.69438666,-0.24557841,-0.28624114,0.61284953,10063820483,0.22681633,0.3969485,-0.29649183,10063820483,0.96038204,-9.774023,0.8520145,10063820483,0.00066079944,4.2466447e-05,8.927658e-05
10063830572,0.69439155,-0.24557751,-0.28623816,0.61284566,10063830572,0.226837,0.39904994,-0.29170302,10063830572,0.93775773,-9.765229,0.83722514,10063830572,-2.5127083e-05,-0.00040257815,-0.00033412967
10063840422,0.69439065,-0.24557552,-0.2862391,0.6128471,10063840422,0.22793196,0.39799243,-0.2929188,10063840422,0.96637726,-9.745465,0.8141634,10063840422,-0.0008553164,5.188398e-06,-0.0012089685
10063850473,0.69439226,-0.24556999,-0.2862409,0.6128466,10063850473,0.23017931,0.40008178,-0.29396725,10063850473,0.95032644,-9.759388,0.8492684,10063850473,-0.000633128,-0.00068874937,-0.00087857805
10063860295,0.6943974,-0.24556841,-0.2862416,0.6128411,10063860295,0.226837,0.39904994,-0.29170302,10063860295,0.9653674,-9.75379,0.8496914,10063860295,0.00023669563,-0.00012409687,-0.0008711545
10063870580,0.69439703,-0.24556649,-0.28624687,0.6128398,10063870580,0.22683349,0.39799988,-0.2976093,10063870580,0.9604816,-9.7530155,0.86108416,10063870580,-0.00011592358,-0.0011234535,-0.0009357901
10063880297,0.6944055,-0.24556684,-0.28624874,0.61282915,10063880297,0.22681403,0.39694828,-0.2953212,10063880297,0.98592484,-9.742308,0.85181606,10063880297,-0.00040660147,-0.00046963058,0.00031011552
10063890461,0.6944032,-0.24557355,-0.2862528,0.61282724,10063890461,0.23013459,0.3969283,-0.2941267,10063890461,0.9624183,-9.7598715,0.8241487,10063890461,-0.0010614414,-0.0012343386,0.0013586124
10063900413,0.694401,-0.24557817,-0.28625786,0.6128255,10063900413,0.22454266,0.39380687,-0.2896434,10063900413,0.9543732,-9.75015,0.8416388,10063900413,-0.00010675099,-0.0012070751,0.00044058077
10063910474,0.69440085,-0.24558745,-0.28626037,0.61282074,10063910474,0.22679229,0.39589643,-0.29186243,10063910474,0.94400907,-9.786287,0.8816806,10063910474,2.2671185e-05,-0.00042925216,0.0005005477
10063920445,0.6944026,-0.2455854,-0.28625968,0.61281997,10063920445,0.22568238,0.3959028,-0.29069978,10063920445,0.94972175,-9.765593,0.8386192,10063920445,-0.0018408466,-0.0010391967,0.00021799654
10063930557,0.69439644,-0.24558899,-0.28626308,0.61282396,10063930557,0.2289754,0.39378074,-0.29078215,10063930557,0.93171865,-9.782157,0.8712568,10063930557,-0.0011339113,-0.0003680922,-6.127171e-06
10063940373,0.69440234,-0.2455829,-0.28626132,0.61282045,10063940373,0.2278999,0.39588985,-0.29185447,10063940373,0.9579748,-9.74214,0.83281344,10063940373,0.00038373936,-3.3189543e-05,-0.00049843825
10063950497,0.6944034,-0.24558626,-0.28626466,0.6128164,10063950497,0.22788268,0.39483848,-0.29073697,10063950497,0.9327141,-9.769035,0.83261555,10063950497,-0.00033013616,-0.0004776353,-0.0010547386
10063960371,0.6944072,-0.2455857,-0.28625667,0.612816,10063960371,0.22790217,0.39589012,-0.2930251,10063960371,0.9546608,-9.801143,0.87956667,10063960371,0.00018831994,-0.00024725404,0.00085393246
10063970501,0.6944109,-0.24558957,-0.2862515,0.61281264,10063970501,0.22901666,0.39588416,-0.29652905,10063970501,0.93346506,-9.754148,0.85114396,10063970501,0.00021701586,0.0010870555,-0.0010334989
10063980368,0.6944109,-0.24559149,-0.28625116,0.612812,10063980368,0.22790675,0.39589053,-0.29536638,10063980368,0.94040203,-9.797584,0.8541713,10063980368,-0.00065492094,0.0013905913,-0.00086574815
10063990396,0.6944096,-0.2455949,-0.2862466,0.61281425,10063990396,0.22681633,0.3969485,-0.29649183,10063990396,0.9482078,-9.775333,0.8357229,10063990396,-0.0011314405,0.001901581,-0.0002215812
10064000477,0.6944116,-0.24558875,-0.286237,0.61281896,10064000477,0.22793196,0.39799243,-0.2929188,10064000477,0.93205065,-9.781866,0.8771307,10064000477,-0.00048670918,0.0023356471,-0.00069369003
10064010401,0.6944186,-0.24557984,-0.2862273,0.6128192,10064010401,0.2278976,0.39588964,-0.29068387,10064010401,0.962685,-9.772112,0.85971045,10064010401,0.00024224538,0.0021877699,6.4203516e-05
10064020374,0.69442445,-0.24557109,-0.28621417,0.6128222,10064020374,0.22568695,0.3959033,-0.29304105,10064020374,0.94548166,-9.790813,0.83473337,10064020374,0.00018928386,0.0024503302,0.00055900775
10064030679,0.69443256,-0.24555689,-0.28619784,0.6128263,10064030679,0.22790217,0.39589012,-0.2930251,10064030679,0.9523823,-9.787123,0.8487749,10064030679,-0.0004723603,0.0018540956,0.0011520069
10064040295,0.6944322,-0.2455577,-0.28619337,0.6128285,10064040295,0.22897771,0.39378095,-0.29195282,10064040295,0.9483852,-9.790636,0.82524776,10064040295,0.00035138335,0.0015437864,0.00031786412
10064050566,0.69443524,-0.245547,-0.28618917,0.6128313,10064050566,0.22679456,0.3958967,-0.29303306,10064050566,0.9431212,-9.777423,0.8360341,10064050566,-0.0007554982,0.0007576924,8.440204e-05
10064060295,0.69443613,-0.24554002,-0.28618386,0.6128355,10064060295,0.23014718,0.39797926,-0.2929029,10064060295,0.9534073,-9.779848,0.87875223,10064060295,-0.00029538944,0.00082323793,-0.00024002418
10064070465,0.694443,-0.24553923,-0.2861742,0.6128326,10064070465,0.22790447,0.39589033,-0.29419577,10064070465,0.9260913,-9.763918,0.82845867,10064070465,-0.000372692,0.00086066127,-2.420973e-05
10064080408,0.69443697,-0.24553943,-0.28617752,0.61283785,10064080408,0.22792163,0.3969417,-0.29531324,10064080408,0.9579071,-9.76267,0.8205548,10064080408,-0.0012431126,-0.0003432911,-0.0010484038
10064090843,0.69443774,-0.24553344,-0.28617558,0.6128402,10064090843,0.23122731,0.39587057,-0.29417184,10064090843,0.9498576,-9.7519455,0.8301033,10064090843,-0.00022831373,-0.00039289333,7.440895e-05
10064100410,0.69444305,-0.24552952,-0.28617334,0.6128368,10064100410,0.22788042,0.39483824,-0.28956637,10064100410,0.95180315,-9.745918,0.8581191,10064100410,0.0007741451,-0.000137778,-0.00089771487
10064110473,0.6944436,-0.2455233,-0.28617245,0.6128391,10064110473,0.22455181,0.39380777,-0.29432592,10064110473,0.92826533,-9.743706,0.82437515,10064110473,0.00087589864,-0.00034376886,-0.00047898013
10064120307,0.69443923,-0.24551721,-0.28617945,0.6128433,10064120307,0.2290052,0.39588305,-0.29067588,10064120307,0.9585086,-9.740566,0.8218319,10064120307,-0.0012390194,-0.0019763056,-0.001242022
10064130707,0.69444066,-0.2455163,-0.28617817,0.61284256,10064130707,0.22785744,0.3927366,-0.29318455,10064130707,0.9659602,-9.754765,0.8089245,10064130707,-0.00021002535,-4.4329092e-05,0.00013383757
10064140379,0.6944418,-0.24551737,-0.2861843,0.61283803,10064140379,0.23010248,0.3948258,-0.2930623,10064140379,0.97116137,-9.748789,0.8624682,10064140379,0.00074735284,-0.0014012884,0.00018265378
10064150397,0.69444126,-0.2455186,-0.28619313,0.612834,10064150397,0.22787584,0.39483783,-0.2872251,10064150397,0.9348526,-9.766182,0.8294147,10064150397,-0.00036650617,-0.00088419206,-0.00077394024
10064160480,0.6944372,-0.24551488,-0.28618705,0.612843,10064160480,0.22566518,0.39485145,-0.28958228,10064160480,0.9695247,-9.759997,0.79940915,10064160480,0.0007954566,0.00013443641,0.0009025885
10064170401,0.69443786,-0.24551262,-0.2861857,0.61284375,10064170401,0.23004517,0.39062136,-0.2944455,10064170401,0.9475704,-9.762368,0.83268213,10064170401,-0.00073047075,0.0004061982,-0.0005832389
10064180475,0.69443804,-0.24551453,-0.286185,0.6128431,10064180475,0.23016211,0.3990304,-0.29284975,10064180475,0.9530092,-9.786154,0.8626715,10064180475,0.0012813294,0.00033582747,-0.00018295646
10064190392,0.69443494,-0.24552485,-0.28618416,0.61284286,10064190392,0.22677508,0.39484507,-0.29074496,10064190392,0.9573231,-9.759045,0.8091873,10064190392,-0.00017676502,-0.0010990305,0.0008300878
10064200368,0.6944323,-0.24552125,-0.28618464,0.612847,10064200368,0.22793654,0.39799285,-0.2952601,10064200368,0.9578972,-9.758323,0.83667743,10064200368,0.00043629203,1.9663945e-05,7.700082e-05
10064210518,0.6944352,-0.24552783,-0.2861874,0.6128399,10064210518,0.22791937,0.39694148,-0.29414263,10064210518,0.9338821,-9.766077,0.82705647,10064210518,0.0004015714,-0.00044173189,-0.00073562656
10064220372,0.6944399,-0.24552739,-0.28618526,0.6128357,10064220372,0.22792968,0.39799216,-0.2917482,10064220372,0.9484635,-9.789309,0.8542943,10064220372,0.0005507963,0.00049262214,-0.00037685037
10064230693,0.69443995,-0.24552412,-0.28618175,0.6128385,10064230693,0.22904187,0.39798602,-0.2940815,10064230693,0.95079076,-9.787523,0.83629787,10064230693,0.00021107402,0.00089536887,-0.0003480874
10064240308,0.69443595,-0.24552472,-0.28618258,0.6128425,10064240308,0.23013002,0.39692783,-0.29178542,10064240308,0.94555837,-9.787239,0.8556047,10064240308,0.0008729156,-0.0011860467,1.5525147e-06
10064250466,0.69444084,-0.24552189,-0.28617364,0.61284226,10064250466,0.23126745,0.39902356,-0.2916712,10064250466,0.94302815,-9.77404,0.867365,10064250466,-0.00049887225,0.00041572656,0.0008373959
10064260410,0.6944429,-0.24551247,-0.28616676,0.6128468,10064260410,0.2279148,0.396941,-0.29180133,10064260410,0.93602926,-9.77947,0.79644245,10064260410,0.00032357406,-0.0005386621,-0.00012103841
10064270475,0.69444114,-0.2455131,-0.28616068,0.6128515,10064270475,0.22906138,0.39903763,-0.2963696,10064270475,0.9396901,-9.767902,0.83969086,10064270475,0.00055348873,-0.0007175226,-6.955769e-05
10064280296,0.69443786,-0.2455147,-0.28615913,0.6128552,10064280296,0.22904415,0.39798626,-0.29525214,10064280296,0.9668338,-9.758948,0.84054446,10064280296,-0.00032620598,-0.0005187411,-0.00042342767
10064290577,0.69444364,-0.24551716,-0.28616163,0.6128467,10064290577,0.23012199,0.39587736,-0.29535043,10064290577,0.94725615,-9.759374,0.8412581,10064290577,0.00011030212,-0.00055325124,0.00032587536
10064300295,0.69443876,-0.24552657,-0.2861705,0.61284417,10064300295,0.22573166,0.39905676,-0.29288164,10064300295,0.9521039,-9.781134,0.82779,10064300295,0.00045862328,-0.0024407897,-0.00061192084
10064310587,0.69443756,-0.24553071,-0.28617877,0.6128401,10064310587,0.23013687,0.39692852,-0.2952973,10064310587,0.9446675,-9.757284,0.8601229,10064310587,0.00072065275,-0.002565709,-6.8203546e-05
10064320305,0.69443494,-0.24553923,-0.28618222,0.6128379,10064320305,0.22793196,0.39799243,-0.2929188,10064320305,0.94226426,-9.761475,0.84364825,10064320305,-0.0006664302,-0.0012808023,0.0005887747
10064330597,0.69443595,-0.2455335,-0.28617817,0.61284107,10064330597,0.23017584,0.39903173,-0.29987353,10064330597,0.93172437,-9.754596,0.8279397,10064330597,0.0005076574,-0.00092815235,0.00014409237
10064340492,0.694427,-0.24553657,-0.28618264,0.61284786,10064340492,0.2279148,0.396941,-0.29180133,10064340492,0.9665849,-9.751923,0.8288189,10064340492,-0.00032987632,-0.001465993,0.0005106656
10064350410,0.69442743,-0.24553871,-0.28618473,0.6128455,10064350410,0.2312571,0.39797288,-0.29406556,10064350410,0.95539165,-9.74849,0.8553845,10064350410,0.00038213097,-0.0014598323,-0.00029152445
10064360375,0.6944335,-0.24553916,-0.28618455,0.61283857,10064360375,0.23016211,0.3990304,-0.29284975,10064360375,0.9507787,-9.759863,0.85874283,10064360375,0.00068855006,-0.00016182195,-4.5078807e-05
10064370514,0.69442815,-0.24555102,-0.28618637,0.61283904,10064370514,0.2279148,0.396941,-0.29180133,10064370514,0.9544786,-9.740956,0.8125169,10064370514,-0.0011583911,-0.0010415362,6.257184e-05
10064380369,0.69443315,-0.24554832,-0.2861838,0.6128356,10064380369,0.22681403,0.39694828,-0.2953212,10064380369,0.9471451,-9.734217,0.8625109,10064380369,0.00018001348,0.0006952677,-0.0008986397
10064390508,0.6944383,-0.24555263,-0.28618032,0.6128298,10064390508,0.22790904,0.39589077,-0.296537,10064390508,0.95339394,-9.753727,0.87444514,10064390508,0.0002277894,-0.000425254,0.00010547042
10064400370,0.69443893,-0.24555136,-0.28618318,0.61282814,10064400370,0.22676247,0.39379412,-0.2919687,10064400370,0.95980585,-9.733038,0.83124155,10064400370,0.000591523,0.00026264787,-0.0014482439
10064410408,0.6944397,-0.2455497,-0.2861821,0.61282843,10064410408,0.22671546,0.39064044,-0.2909575,10064410408,0.9423057,-9.773261,0.83579206,10064410408,-0.00035812054,0.0011602659,0.00034496374
10064420491,0.69443536,-0.24555457,-0.28618526,0.61282986,10064420491,0.22790217,0.39589012,-0.2930251,10064420491,0.9511888,-9.7777815,0.82716656,10064420491,0.0010685157,0.0006267447,0.00011227839
10064430543,0.6944378,-0.24555366,-0.2861833,0.61282843,10064430543,0.2267579,0.3937937,-0.28962746,10064430543,0.9604852,-9.771946,0.8324131,10064430543,0.00072593056,0.0005727485,0.00040945783
10064440455,0.69443977,-0.24554178,-0.28617987,0.61283255,10064440455,0.23016669,0.39903083,-0.29519102,10064440455,0.9458829,-9.790926,0.82780135,10064440455,-0.00035142154,0.001407342,-0.0010283096
10064450460,0.6944427,-0.24553764,-0.28616968,0.6128357,10064450460,0.22794461,0.39904332,-0.29169506,10064450460,0.9405365,-9.808894,0.83553267,10064450460,4.4268556e-05,0.0016282564,-0.000362359
10064460302,0.6944416,-0.24553357,-0.2861605,0.6128428,10064460302,0.22681977,0.39799854,-0.29058552,10064460302,0.95763755,-9.775762,0.80321157,10064460302,-6.226823e-05,0.0021152114,-0.00017503276
10064470573,0.69443876,-0.24552895,-0.28615883,0.61284876,10064470573,0.22793883,0.39799306,-0.2964307,10064470573,0.9139764,-9.802491,0.828462,10064470573,-0.00017602649,0.0004170509,-0.0006087618
10064480302,0.6944383,-0.24553251,-0.28615686,0.61284876,10064480302,0.22901209,0.39588374,-0.29418778,10064480302,0.94101924,-9.765451,0.8589204,10064480302,-0.00024840422,0.0002490664,-7.35838e-05
10064490463,0.69443506,-0.24554141,-0.28616208,0.6128464,10064490463,0.2268186,0.3969487,-0.29766247,10064490463,0.9488016,-9.796563,0.82464063,10064490463,-0.0009796089,-0.0007554097,-0.00068792887
10064500404,0.69443023,-0.24555145,-0.286169,0.61284465,10064500404,0.23013687,0.39692852,-0.2952973,10064500404,0.95301735,-9.762399,0.8450371,10064500404,0.00043244194,-0.0003207801,-0.00042691827
10064510470,0.6944298,-0.24554853,-0.28617018,0.61284566,10064510470,0.22573166,0.39905676,-0.29288164,10064510470,0.95644677,-9.762312,0.81582075,10064510470,0.00038006995,0.00050945766,-0.00025628414
10064520406,0.6944283,-0.24554542,-0.28617626,0.6128458,10064520406,0.22572938,0.3990565,-0.29171097,10064520406,0.9681864,-9.7691555,0.82249296,10064520406,-0.00060848985,-0.00019965507,-0.00039657205
10064530594,0.69442314,-0.24554595,-0.2861822,0.6128487,10064530594,0.2290545,0.39903697,-0.29285774,10064530594,0.94640607,-9.757851,0.84390205,10064530594,-0.0013145301,-0.0014241599,2.3446977e-05
10064540335,0.6944174,-0.24555051,-0.2861846,0.61285216,10064540335,0.22904873,0.39798668,-0.29759338,10064540335,0.94685465,-9.770223,0.82869256,10064540335,-0.00035474263,-0.00025751442,0.00061874185
10064550533,0.69441533,-0.24554542,-0.28618222,0.61285776,10064550533,0.22567433,0.39485234,-0.29426482,10064550533,0.94525355,-9.759821,0.8036772,10064550533,-0.0006621992,0.00028644875,0.00013849605
10064560368,0.6944096,-0.24554737,-0.2861903,0.6128597,10064560368,0.22682892,0.39799944,-0.29526803,10064560368,0.9651262,-9.75987,0.82851994,10064560368,-0.0006152615,0.00085350405,-0.00095865596
10064570496,0.6944142,-0.24554878,-0.28619215,0.61285305,10064570496,0.22902697,0.3969349,-0.29413468,10064570496,0.9632509,-9.750464,0.8303948,10064570496,0.0012661461,0.0003606351,0.0001923209
10064580360,0.6944138,-0.2455511,-0.28619727,0.6128502,10064580360,0.22789183,0.39483938,-0.2954195,10064580360,0.953246,-9.765995,0.8402885,10064580360,-0.0006236015,0.00024688337,-0.00023596827
10064590776,0.6944154,-0.2455562,-0.2862007,0.61284477,10064590776,0.22789183,0.39483938,-0.2954195,10064590776,0.95820355,-9.7492895,0.80956584,10064590776,-3.916491e-05,-3.3404678e-05,0.00024137273
10064600475,0.6944126,-0.24554673,-0.28620526,0.6128496,10064600475,0.22677279,0.39484483,-0.28957433,10064600475,0.9643519,-9.758576,0.8421713,10064600475,-0.0011651628,-0.00046930555,0.000172792
10064610405,0.69440824,-0.24553986,-0.28620908,0.61285543,10064610405,0.22455527,0.39485782,-0.2884196,10064610405,0.94245946,-9.732826,0.8106975,10064610405,-0.0015756944,0.0011537075,-0.00072537176
10064620372,0.69440997,-0.24553679,-0.28620782,0.61285526,10064620372,0.22896506,0.39273003,-0.2931766,10064620372,0.9583197,-9.76785,0.8138348,10064620372,0.00024502445,0.00041757524,-0.0011920352
10064630646,0.69440514,-0.24553573,-0.28621167,0.6128594,10064630646,0.2278976,0.39588964,-0.29068387,10064630646,0.93609184,-9.776117,0.8166961,10064630646,0.00074832793,0.00082215946,-4.5675784e-05
10064640337,0.69440395,-0.24552463,-0.28621078,0.6128657,10064640337,0.22347747,0.39696673,-0.28832132,10064640337,0.97149134,-9.749934,0.8196349,10064640337,-0.00017407164,0.0005979929,0.0002814168
10064650571,0.6943983,-0.24551944,-0.2862129,0.6128731,10064650571,0.2278678,0.39378732,-0.2907901,10064650571,0.9635124,-9.759919,0.8479593,10064650571,-0.00058281235,0.00016462151,0.00023145974
10064660294,0.6944002,-0.24552414,-0.28620765,0.6128716,10064660294,0.22566518,0.39485145,-0.28958228,10064660294,0.94440603,-9.756101,0.8447689,10064660294,0.00051494315,0.00046567246,-0.00026770495
10064670470,0.6944043,-0.24552053,-0.28620276,0.6128705,10064670470,0.22788726,0.39483896,-0.29307827,10064670470,0.95736885,-9.767594,0.81731427,10064670470,0.00033225585,-0.00097596087,0.0005599465
10064680404,0.69439936,-0.24551801,-0.28621146,0.6128732,10064680404,0.22903383,0.39693555,-0.29764655,10064680404,0.9437098,-9.768932,0.82341135,10064680404,-0.00029326603,-0.0010455698,-0.00025145523
10064690461,0.69439095,-0.24551842,-0.28620908,0.6128837,10064690461,0.2301323,0.3969281,-0.29295605,10064690461,0.93981653,-9.789376,0.8143124,10064690461,-0.00054382626,-0.0004950799,0.00068295375
10064700400,0.6943886,-0.24552481,-0.28621036,0.61288303,10064700400,0.22791937,0.39694148,-0.29414263,10064700400,0.9353224,-9.771242,0.7994095,10064700400,0.00045781117,-3.069546e-05,0.0013040872
10064710474,0.69438666,-0.24553095,-0.2862134,0.6128814,10064710474,0.22792163,0.3969417,-0.29531324,10064710474,0.9535737,-9.78986,0.819295,10064710474,0.00096936896,-0.0009428011,0.00036749244
10064720326,0.6943823,-0.24553329,-0.28621987,0.61288244,10064720326,0.22682434,0.39799902,-0.2929268,10064720326,0.9317256,-9.775109,0.8212282,10064720326,-0.00024544355,-0.002132699,-0.0014952328
10064730707,0.69437784,-0.24553718,-0.286222,0.612885,10064730707,0.22796635,0.40009516,-0.29515383,10064730707,0.94648755,-9.772009,0.8262605,10064730707,-1.6324222e-05,-0.0022957074,0.00024286378
10064740349,0.6943776,-0.24554703,-0.28622678,0.612879,10064740349,0.22794461,0.39904332,-0.29169506,10064740349,0.9362205,-9.764618,0.8792945,10064740349,-5.8464706e-05,-0.0011934815,0.0012457697
10064750425,0.69437826,-0.24555066,-0.2862283,0.61287606,10064750425,0.22679913,0.39589712,-0.29537433,10064750425,0.9585278,-9.771992,0.87181956,10064750425,-0.0004979372,-0.0013058214,-0.0003038505
10064760477,0.6943809,-0.24555351,-0.28622678,0.61287266,10064760477,0.2279251,0.39799172,-0.28940693,10064760477,0.9528362,-9.761063,0.827687,10064760477,0.0010421555,-0.0024164887,0.0005420083
10064770396,0.6943845,-0.24554993,-0.28622082,0.61287284,10064770396,0.22902697,0.3969349,-0.29413468,10064770396,0.95955366,-9.763173,0.8975502,10064770396,0.00083110854,0.00031979755,0.0006368309
10064780498,0.6943891,-0.2455582,-0.28621992,0.6128647,10064780498,0.22904187,0.39798602,-0.2940815,10064780498,0.9620565,-9.769379,0.8548628,10064780498,0.0011342429,-0.0018770285,0.00087746885
10064790394,0.69438714,-0.24555896,-0.28622586,0.6128639,10064790394,0.22900751,0.39588326,-0.29184654,10064790394,0.958493,-9.754114,0.8362839,10064790394,0.00060680136,-0.00073700957,-0.00037478842
10064800376,0.69439113,-0.24555923,-0.28622413,0.61286,10064800376,0.22681175,0.39694807,-0.29415056,10064800376,0.94980323,-9.757354,0.8727941,10064800376,-0.0001180144,-0.00045028608,-0.00026670936
10064810511,0.69439703,-0.24555646,-0.2862215,0.6128557,10064810511,0.22794689,0.3990436,-0.2928657,10064810511,0.96492857,-9.744207,0.86784464,10064810511,0.00040784478,3.5991892e-05,-0.0005911654
10064820488,0.6944001,-0.24555342,-0.2862209,0.61285365,10064820488,0.22905223,0.39903674,-0.2916871,10064820488,0.9489304,-9.746607,0.81809795,10064820488,-0.00037200283,0.0003389353,9.6865e-05
10064830434,0.69440633,-0.2455487,-0.2862133,0.61285204,10064830434,0.22793426,0.39799264,-0.29408947,10064830434,0.95071554,-9.746231,0.86689824,10064830434,0.0012131091,0.0004011877,4.7646463e-06
10064840456,0.6944069,-0.24553995,-0.28620732,0.6128577,10064840456,0.22796409,0.40009496,-0.29398316,10064840456,0.93614495,-9.756407,0.8641595,10064840456,0.00020462181,0.001351025,-6.874278e-05
10064850448,0.6944101,-0.24554372,-0.28620028,0.612856,10064850448,0.22791706,0.39694127,-0.29297197,10064850448,0.9663267,-9.72172,0.8702669,10064850448,-0.0004932685,0.0011149803,0.00044290628
10064860442,0.694417,-0.2455426,-0.2861964,0.6128503,10064860442,0.23122273,0.3958701,-0.2918306,10064860442,0.94161993,-9.728484,0.8744687,10064860442,-0.00082741585,0.00040241424,-0.00030122884
10064870470,0.6944204,-0.24553959,-0.28618738,0.612852,10064870470,0.22791706,0.39694127,-0.29297197,10064870470,0.9477803,-9.786631,0.8026167,10064870470,-0.000898961,0.0011797687,0.00032032654
10064880295,0.6944149,-0.24554163,-0.2861836,0.61285913,10064880295,0.22791937,0.39694148,-0.29414263,10064880295,0.9382754,-9.762921,0.8474303,10064880295,0.0010909745,1.2700446e-05,0.00067611784
10064890576,0.694417,-0.24554498,-0.28617644,0.6128587,10064890576,0.22901435,0.39588395,-0.29535842,10064890576,0.92779994,-9.765006,0.7995986,10064890576,-0.00062333234,0.00032674614,-8.9912675e-05
10064900296,0.6944155,-0.24554819,-0.28617662,0.61285895,10064900296,0.23010021,0.39482552,-0.2918917,10064900296,0.9393039,-9.7593975,0.8361718,10064900296,-0.00086524803,-0.0013210094,0.00091669895
10064910590,0.6944165,-0.24554507,-0.28617734,0.6128587,10064910590,0.22457705,0.3959096,-0.29187837,10064910590,0.93041265,-9.776535,0.82193977,10064910590,-0.00053048506,-5.2603893e-05,-0.0006511258
10064920447,0.69441426,-0.24555546,-0.28618237,0.6128549,10064920447,0.2290201,0.3969342,-0.29062277,10064920447,0.9476937,-9.798897,0.84441584,10064920447,6.9990754e-05,-0.0012248,-0.0006017713
10064930452,0.6944108,-0.24555704,-0.28618595,0.61285645,10064930452,0.2289926,0.39483213,-0.29189968,10064930452,0.9458703,-9.784853,0.8460059,10064930452,-0.00018297788,-0.00020213984,0.00045645144
10064940456,0.6944069,-0.24556217,-0.28618726,0.6128582,10064940456,0.22680946,0.39694783,-0.29297993,10064940456,0.9326335,-9.765578,0.84577996,10064940456,0.00014841184,-0.00081892405,-0.00013422128
10064950437,0.69441456,-0.24556321,-0.28618744,0.612849,10064950437,0.22571903,0.3980058,-0.29410538,10064950437,0.95654744,-9.791647,0.8071925,10064950437,-7.005222e-05,0.00055132154,-0.00070811156
10064960337,0.69441205,-0.24555795,-0.28618306,0.6128561,10064960337,0.22570184,0.39695442,-0.2929879,10064960337,0.95562816,-9.78498,0.8255794,10064960337,-0.0011908216,0.0004829308,0.0007837936
10064970550,0.694408,-0.24555895,-0.28618792,0.612858,10064970550,0.2279148,0.396941,-0.29180133,10064970550,0.938167,-9.792585,0.86864996,10064970550,3.625918e-05,0.00040535722,-0.00046839938
10064980363,0.6944111,-0.24555944,-0.28617886,0.6128585,10064980363,0.22796635,0.40009516,-0.29515383,10064980363,0.92624867,-9.794573,0.82281244,10064980363,-9.731203e-05,0.0006447453,-0.00069462415
10064990502,0.69441676,-0.24556105,-0.286179,0.6128513,10064990502,0.22682434,0.39799902,-0.2929268,10064990502,0.9766436,-9.773605,0.83540857,10064990502,0.00042660255,0.0017722752,-0.0004987512
10065000371,0.6944192,-0.24555218,-0.28617167,0.6128555,10065000371,0.2290568,0.3990372,-0.29402837,10065000371,0.95702076,-9.781714,0.7946645,10065000371,-0.00062662456,0.0008549504,-0.00083784014
10065010405,0.6944182,-0.24555218,-0.28617084,0.6128571,10065010405,0.22684385,0.3990506,-0.2952149,10065010405,0.9447908,-9.769746,0.8393118,10065010405,-0.0005435869,9.084586e-05,-7.451326e-05
10065020602,0.6944203,-0.24554782,-0.2861618,0.6128607,10065020602,0.22574885,0.40010813,-0.29399914,10065020602,0.95477545,-9.744764,0.8129075,10065020602,-0.0013277009,0.0018051099,0.0001294706
10065030437,0.6944215,-0.24554093,-0.28615677,0.61286443,10065030437,0.22788957,0.39483917,-0.29424888,10065030437,0.95190984,-9.780108,0.81556386,10065030437,-0.00028414838,0.0019986778,0.0010241996
10065040451,0.6944194,-0.24553601,-0.28615987,0.61286736,10065040451,0.22793196,0.39799243,-0.2929188,10065040451,0.9730426,-9.762226,0.8199214,10065040451,-0.00017762184,0.0012996951,-0.00012990739
10065050425,0.6944201,-0.24552391,-0.28615677,0.6128728,10065050425,0.22685418,0.4001013,-0.2928205,10065050425,0.96365446,-9.754273,0.8309453,10065050425,0.000116552226,0.0013296977,-0.00024919305
10065060333,0.6944221,-0.24552262,-0.28615612,0.61287135,10065060333,0.229035,0.39798537,-0.2905696,10065060333,0.947786,-9.740572,0.81784815,10065060333,-0.000105066225,0.0004862137,-0.00011481531
10065070579,0.6944209,-0.24551556,-0.2861506,0.6128782,10065070579,0.22682434,0.39799902,-0.2929268,10065070579,0.95685464,-9.743209,0.83164304,10065070579,0.0008099554,0.0009977678,-0.0002692705
10065080302,0.6944201,-0.24550352,-0.28614834,0.612885,10065080302,0.22905223,0.39903674,-0.2916871,10065080302,0.9490431,-9.763336,0.8224901,10065080302,0.0003863899,0.0010798695,-8.24444e-05
10065090843,0.6944181,-0.24550271,-0.28615078,0.61288637,10065090843,0.22680144,0.39589736,-0.29654497,10065090843,0.9571376,-9.758641,0.8100225,10065090843,0.0004877383,8.3800405e-05,7.332675e-05
10065100406,0.6944157,-0.24550867,-0.28616047,0.6128822,10065100406,0.22677736,0.39484528,-0.29191557,10065100406,0.932377,-9.758198,0.79023707,10065100406,3.83351e-05,-0.00010243151,0.0001309095
10065110478,0.69441223,-0.24551289,-0.28616315,0.6128832,10065110478,0.22678193,0.39484575,-0.29425684,10065110478,0.9514316,-9.767574,0.80040133,10065110478,0.00021233875,-0.00128855,0.0006375443
10065120554,0.69441223,-0.24551193,-0.28616658,0.61288196,10065120554,0.22562505,0.3916984,-0.292083,10065120554,0.9657346,-9.787184,0.8234561,10065120554,0.0004540719,-0.001306776,0.0006496953
10065130451,0.6944116,-0.2455169,-0.28617707,0.61287576,10065130451,0.22565943,0.39380118,-0.29431796,10065130451,0.95833236,-9.761122,0.81617945,10065130451,0.00158842,-0.0014040284,-0.001137712
10065140342,0.694409,-0.24552272,-0.28618604,0.61287224,10065140342,0.22683927,0.39905018,-0.29287365,10065140342,0.96625084,-9.754982,0.8060684,10065140342,0.00036969595,-0.0003393963,-0.00011804793
10065150534,0.69440067,-0.24552928,-0.28619727,0.61287373,10065150534,0.2267556,0.3937935,-0.28845683,10065150534,0.9307189,-9.770459,0.78932047,10065150534,-0.0008511599,-0.0009348653,-0.0004323488
10065160336,0.6943942,-0.24552558,-0.28620273,0.6128801,10065160336,0.22676247,0.39379412,-0.2919687,10065160336,0.97099745,-9.7879305,0.8217713,10065160336,-0.00081054494,-0.0012770137,-0.0010272991
10065170548,0.69439465,-0.24552809,-0.2862004,0.61287963,10065170548,0.22566976,0.39485186,-0.29192355,10065170548,0.95705855,-9.773825,0.8431515,10065170548,0.00023841672,-0.0016033556,-4.251115e-05
10065180364,0.694395,-0.24553181,-0.2862032,0.6128765,10065180364,0.22679456,0.3958967,-0.29303306,10065180364,0.92925715,-9.773087,0.81869817,10065180364,0.0002551442,-0.0012789946,-0.00048308447
10065190388,0.69438964,-0.24553832,-0.2862097,0.61287683,10065190388,0.22899717,0.39483258,-0.29424092,10065190388,0.9530231,-9.800865,0.82501066,10065190388,0.00028093718,-0.0011360943,0.0002656309
10065200473,0.69438744,-0.24553937,-0.28620988,0.61287886,10065200473,0.22900751,0.39588326,-0.29184654,10065200473,0.91860056,-9.785221,0.8355974,10065200473,-0.00022422988,-0.00035795476,0.00014966447
10065210409,0.69438374,-0.2455505,-0.28621817,0.61287475,10065210409,0.22683927,0.39905018,-0.29287365,10065210409,0.94306815,-9.760939,0.8488233,10065210409,0.00026574265,-0.0010161335,-0.00069693755
10065220479,0.69438463,-0.24555315,-0.28621972,0.6128719,10065220479,0.22682434,0.39799902,-0.2929268,10065220479,0.9425836,-9.765638,0.8286107,10065220479,0.0005269684,-4.4400804e-05,-0.00010982994
10065230533,0.6943854,-0.24555555,-0.2862159,0.61287177,10065230533,0.22791937,0.39694148,-0.29414263,10065230533,0.9504134,-9.766962,0.83175886,10065230533,0.0013931384,-0.00039873738,0.00035804324
10065240330,0.69438624,-0.2455537,-0.286216,0.6128715,10065240330,0.22793196,0.39799243,-0.2929188,10065240330,0.9841341,-9.772056,0.85249805,10065240330,0.0006142203,0.00016676635,0.0002817614
10065250530,0.6943928,-0.24555327,-0.28621307,0.6128656,10065250530,0.22899488,0.39483237,-0.29307032,10065250530,0.96525043,-9.791068,0.84015965,10065250530,0.000384002,0.00035407208,0.0007951828
10065260323,0.69439673,-0.24554819,-0.2862116,0.61286396,10065260323,0.22792968,0.39799216,-0.2917482,10065260323,0.9458409,-9.756038,0.84781057,10065260323,0.0005661482,0.00014550146,-0.0018402096
10065270432,0.69439673,-0.24554971,-0.2862144,0.612862,10065270432,0.22793654,0.39799285,-0.2952601,10065270432,0.9524815,-9.7655325,0.8508179,10065270432,-0.00012013409,0.00070553925,0.00021811388
10065280449,0.6943947,-0.24555503,-0.28621775,0.6128606,10065280449,0.2268358,0.39800012,-0.29877993,10065280449,0.9562413,-9.756426,0.8087288,10065280449,-0.00030580256,0.00029618014,0.0009936579
10065290465,0.6943928,-0.24555773,-0.28622288,0.61285937,10065290465,0.23014145,0.39692897,-0.29763857,10065290465,0.9437417,-9.735952,0.83284044,10065290465,-6.790459e-05,-0.00038206112,-0.0007612081
10065300293,0.69439375,-0.2455589,-0.28622317,0.6128577,10065300293,0.22902697,0.3969349,-0.29413468,10065300293,0.949688,-9.772537,0.84815884,10065300293,0.000108080916,-0.000597056,0.00044078007
10065310588,0.6943956,-0.24555989,-0.2862253,0.6128542,10065310588,0.22905223,0.39903674,-0.2916871,10065310588,0.9537679,-9.750927,0.8813295,10065310588,-0.00025273673,-0.0005395161,-0.0006936323
10065320440,0.69439584,-0.24555916,-0.28622606,0.6128539,10065320440,0.23016441,0.39903063,-0.29402038,10065320440,0.9525319,-9.775462,0.81941074,10065320440,-0.0014367858,-0.0012512887,-4.187599e-05
10065330555,0.69439554,-0.24556047,-0.2862306,0.61285156,10065330555,0.22907169,0.40008837,-0.29397523,10065330555,0.9664564,-9.740531,0.8437984,10065330555,-0.00011652801,-0.00084502436,-0.00026462413
10065340344,0.6943924,-0.24555779,-0.28623554,0.61285394,10065340344,0.22568695,0.3959033,-0.29304105,10065340344,0.9656802,-9.739342,0.8259201,10065340344,-0.00021918584,-0.0014244718,-0.0002525067
10065350441,0.6943926,-0.24556108,-0.28623778,0.61285126,10065350441,0.22903958,0.39798585,-0.29291087,10065350441,0.94328785,-9.768496,0.8372466,10065350441,-0.00043830834,0.00044329837,0.00024334714
10065360440,0.69438756,-0.24556908,-0.28624076,0.6128524,10065360440,0.22793654,0.39799285,-0.2952601,10065360440,0.953884,-9.759624,0.8498612,10065360440,0.00029665325,-0.0009865509,0.0004096264
10065370431,0.69438404,-0.24557242,-0.28624484,0.61285305,10065370431,0.22682434,0.39799902,-0.2929268,10065370431,0.96607804,-9.775213,0.83433473,10065370431,-0.00031511486,-0.00063612405,0.00033721328
10065380475,0.6943864,-0.2455738,-0.28624633,0.6128491,10065380475,0.22792163,0.3969417,-0.29531324,10065380475,0.9499103,-9.774085,0.8409854,10065380475,-0.00019490067,-0.0009653913,0.00013658497
10065390386,0.6943897,-0.24558051,-0.28624508,0.6128433,10065390386,0.23011741,0.3958769,-0.2930092,10065390386,0.9434649,-9.781643,0.847984,10065390386,0.00034461357,-0.00036130287,0.00033246446
10065400373,0.6943949,-0.24557413,-0.2862383,0.6128432,10065400373,0.2289582,0.39272937,-0.2896647,10065400373,0.9447917,-9.783942,0.899928,10065400373,-0.00081447326,0.0013259975,-0.00028929487
10065410514,0.6943963,-0.2455749,-0.28623012,0.6128451,10065410514,0.22785744,0.3927366,-0.29318455,10065410514,0.93393105,-9.775572,0.8518477,10065410514,-0.0008371435,0.0012161704,0.0011962838
10065420486,0.6944005,-0.24557512,-0.28622225,0.612844,10065420486,0.2289903,0.3948319,-0.29072902,10065420486,0.93814576,-9.777714,0.8515613,10065420486,0.00046793465,0.0008379575,-0.00036423746
10065430427,0.6944041,-0.24556832,-0.28621158,0.6128476,10065430427,0.22458966,0.39696056,-0.2906546,10065430427,0.94586957,-9.780858,0.8664223,10065430427,0.0003256686,0.0013442961,0.0004698243
10065440450,0.6944041,-0.24556303,-0.28620127,0.6128544,10065440450,0.2290224,0.39693442,-0.29179338,10065440450,0.9580611,-9.790825,0.82817155,10065440450,-0.0007917937,0.0008160332,-0.00059486646
10065450433,0.6944059,-0.24556145,-0.28619736,0.6128549,10065450433,0.23017931,0.40008178,-0.29396725,10065450433,0.9487965,-9.762943,0.8400359,10065450433,-6.039068e-05,0.0002644034,0.00042364188
10065460433,0.69441044,-0.24555662,-0.28619114,0.6128546,10065460433,0.22793426,0.39799264,-0.29408947,10065460433,0.94673,-9.762119,0.8664565,10065460433,-0.0003973553,0.00027368218,0.0003110785
10065470440,0.69441277,-0.24555051,-0.286181,0.61285913,10065470440,0.22903155,0.3969353,-0.29647592,10065470440,0.93979615,-9.765343,0.83578944,10065470440,0.00027254038,0.00093058497,0.0001053717
10065480338,0.69441235,-0.24555035,-0.28617978,0.61286026,10065480338,0.2290568,0.3990372,-0.29402837,10065480338,0.947332,-9.782491,0.78558236,10065480338,0.00037899334,0.0005776519,-0.000777808
10065490583,0.6944129,-0.2455424,-0.28617373,0.6128656,10065490583,0.22902697,0.3969349,-0.29413468,10065490583,0.93793374,-9.747153,0.7940373,10065490583,2.8170645e-05,0.002455458,0.0005613882
10065500301,0.69440824,-0.24554642,-0.28617027,0.6128709,10065500301,0.22793426,0.39799264,-0.29408947,10065500301,0.9348821,-9.7607155,0.80857795,10065500301,0.0010408126,0.0007959632,0.00044783857
10065510595,0.6944037,-0.24553764,-0.28616866,0.6128804,10065510595,0.22903155,0.3969353,-0.29647592,10065510595,0.9556617,-9.768679,0.8089301,10065510595,-0.00057308935,0.00041967072,-0.00019602478
10065520450,0.6944035,-0.24554054,-0.28616643,0.6128804,10065520450,0.22902468,0.3969347,-0.29296404,10065520450,0.94909215,-9.7316675,0.8397641,10065520450,0.0003004903,0.0008887993,0.0004928494
10065530452,0.6943953,-0.2455422,-0.2861688,0.6128879,10065530452,0.22684385,0.3990506,-0.2952149,10065530452,0.9435252,-9.762496,0.8081786,10065530452,-0.00064500887,-0.00068771094,0.00050038565
10065540450,0.6943894,-0.24554582,-0.28617856,0.6128887,10065540450,0.2301495,0.39797947,-0.29407352,10065540450,0.97428983,-9.753336,0.791953,10065540450,-4.617963e-05,0.00047338475,-0.0009890236
10065550432,0.69439006,-0.24554195,-0.28618315,0.61288726,10065550432,0.2279767,0.4011459,-0.29275942,10065550432,0.96540153,-9.764385,0.8367946,10065550432,0.00058357883,-0.000951672,-0.00032406393
10065560335,0.6943873,-0.245541,-0.28618965,0.6128877,10065560335,0.22682208,0.39799875,-0.29175615,10065560335,0.95982647,-9.757961,0.84199774,10065560335,0.00019974541,-0.0006360486,0.00021412969
10065570543,0.694377,-0.24554245,-0.28620002,0.612894,10065570543,0.2290545,0.39903697,-0.29285774,10065570543,0.9478482,-9.763674,0.8418031,10065570543,-0.0006396603,-0.0018858416,0.0006609773
10065580334,0.69437605,-0.24554077,-0.28619877,0.6128964,10065580334,0.22792163,0.3969417,-0.29531324,10065580334,0.955919,-9.780332,0.8421242,10065580334,-0.0012541199,-0.0008692192,-0.00031119026
10065590919,0.6943749,-0.24553625,-0.28619847,0.61289966,10065590919,0.22679687,0.3958969,-0.2942037,10065590919,0.94744647,-9.771593,0.8255445,10065590919,0.00028742384,-0.000488298,-0.0010441113
10065600380,0.69437486,-0.24552965,-0.28620562,0.612899,10065600380,0.22674756,0.39274296,-0.29202187,10065600380,0.96932447,-9.763141,0.8246386,10065600380,-0.0007284535,-0.0005406812,-0.0003145542
10065610411,0.69436896,-0.24553238,-0.28621736,0.612899,10065610411,0.2278999,0.39588985,-0.29185447,10065610411,0.94586104,-9.782524,0.83020085,10065610411,0.000100862235,-0.0012280699,-3.594812e-05
10065620595,0.6943627,-0.24553482,-0.2862175,0.6129051,10065620595,0.22791706,0.39694127,-0.29297197,10065620595,0.95652103,-9.77166,0.8099191,10065620595,-0.0007198369,3.0957162e-06,0.00016716868
10065630430,0.6943676,-0.24554272,-0.28621963,0.6128954,10065630430,0.2278678,0.39378732,-0.2907901,10065630430,0.9530378,-9.793715,0.85546136,10065630430,0.0014658254,-0.0007761242,-0.000103545375
10065640456,0.6943675,-0.24553807,-0.28621528,0.6128994,10065640456,0.2290224,0.39693442,-0.29179338,10065640456,0.9260011,-9.79257,0.81377685,10065640456,-0.00010650605,0.0007692734,-0.0007257564
10065650436,0.6943645,-0.24554467,-0.28621906,0.61289847,10065650436,0.227885,0.3948387,-0.2919076,10065650436,0.9432509,-9.767135,0.82914275,10065650436,0.00020736177,1.0073185e-05,-0.00046824384
10065660341,0.69436806,-0.24554135,-0.28621987,0.61289525,10065660341,0.2256801,0.3959026,-0.28952914,10065660341,0.97210115,-9.780445,0.8384294,10065660341,0.00019034278,0.0007735742,-0.0006300518
10065670551,0.69436854,-0.24553914,-0.28621534,0.6128977,10065670551,0.2268026,0.39694718,-0.28946805,10065670551,0.9356562,-9.797117,0.8352422,10065670551,0.00050915964,0.0007317737,-0.00012381468
10065680334,0.6943726,-0.24552867,-0.28621155,0.6128992,10065680334,0.22901209,0.39588374,-0.29418778,10065680334,0.9352524,-9.780444,0.8660956,10065680334,0.00033930875,-0.00019877963,-0.000978333
10065690437,0.6943755,-0.24552989,-0.2862086,0.61289674,10065690437,0.22573623,0.39905718,-0.29522288,10065690437,0.97260416,-9.762829,0.8555454,10065690437,-0.00023641437,-0.0012891665,-0.00086572394
10065700446,0.69436973,-0.2455348,-0.28622252,0.6128948,10065700446,0.22904415,0.39798626,-0.29525214,10065700446,0.9437169,-9.763801,0.8267753,10065700446,-0.00064675696,-0.0008567823,-0.00027582608
10065710480,0.69436365,-0.24553552,-0.2862235,0.61290103,10065710480,0.22796178,0.40009472,-0.29281256,10065710480,0.9370119,-9.7638,0.83012766,10065710480,-0.0003719274,-0.00044911262,-0.0002500536
10065720563,0.6943661,-0.2455416,-0.2862204,0.6128972,10065720563,0.22902697,0.3969349,-0.29413468,10065720563,0.95524263,-9.747131,0.84193426,10065720563,0.0018939469,-0.0007598689,0.0011664862
10065730458,0.69436175,-0.24553984,-0.2862264,0.6129,10065730458,0.22793196,0.39799243,-0.2929188,10065730458,0.9633416,-9.747133,0.82246625,10065730458,-0.0004523676,-0.0004345635,-0.00041032955
10065740338,0.6943594,-0.24554434,-0.28623056,0.61289895,10065740338,0.22790217,0.39589012,-0.2930251,10065740338,0.94112086,-9.744101,0.8506051,10065740338,-0.00014730357,-0.0019288594,0.0016622432
10065750545,0.6943579,-0.24555236,-0.2862386,0.61289376,10065750545,0.2268026,0.39694718,-0.28946805,10065750545,0.97274196,-9.771471,0.83768356,10065750545,0.0010114685,-0.0017037168,0.0008764267
10065760335,0.69435906,-0.24555169,-0.28623763,0.61289316,10065760335,0.22900751,0.39588326,-0.29184654,10065760335,0.9443127,-9.750685,0.884514,10065760335,-0.00043429527,-0.0010935403,-0.0004638033
10065770429,0.6943633,-0.24555285,-0.28624412,0.6128848,10065770429,0.23010705,0.3948262,-0.29540357,10065770429,0.9618938,-9.743209,0.83806705,10065770429,-0.00022231787,-0.001459429,-0.0007590968
10065780434,0.6943629,-0.24555816,-0.28625175,0.61287963,10065780434,0.22897997,0.39378121,-0.29312342,10065780434,0.948298,-9.770634,0.84663194,10065780434,-3.784988e-05,-0.0014862325,-0.00088170543
10065790428,0.6943627,-0.24556077,-0.28625783,0.6128759,10065790428,0.22903383,0.39693555,-0.29764655,10065790428,0.9604923,-9.759283,0.8058543,10065790428,-0.000524112,-0.0014506308,0.000272654
10065800478,0.69436246,-0.24556316,-0.28625613,0.61287606,10065800478,0.22681175,0.39694807,-0.29415056,10065800478,0.95218885,-9.761952,0.8514787,10065800478,1.6950071e-06,-0.00027077924,0.00020487979
10065810403,0.69436353,-0.24556261,-0.28625932,0.6128735,10065810403,0.2279148,0.396941,-0.29180133,10065810403,0.94652957,-9.758528,0.8594279,10065810403,-0.0005562445,-0.00017769728,-0.0012472989
10065820481,0.6943678,-0.24556091,-0.28625742,0.61287016,10065820481,0.22902468,0.3969347,-0.29296404,10065820481,0.9519677,-9.750731,0.8921717,10065820481,-0.0003816327,0.00016476586,-0.00038550608
10065830539,0.6943706,-0.24555536,-0.28624642,0.61287445,10065830539,0.22901209,0.39588374,-0.29418778,10065830539,0.92713785,-9.75289,0.83610034,10065830539,-0.00060778484,0.00025943853,-0.00039373897
10065840347,0.69437766,-0.24554871,-0.2862375,0.61287326,10065840347,0.23013459,0.3969283,-0.2941267,10065840347,0.9646452,-9.766839,0.8315699,10065840347,0.00041674636,0.0010558441,2.9199757e-05
10065850547,0.6943804,-0.24554409,-0.2862315,0.61287487,10065850547,0.22903958,0.39798585,-0.29291087,10065850547,0.95040315,-9.782669,0.83189076,10065850547,-0.00045248587,-6.657839e-05,-2.1249056e-05
10065860331,0.6943838,-0.24553892,-0.28622475,0.6128761,10065860331,0.22790447,0.39589033,-0.29419577,10065860331,0.94417876,-9.778173,0.816061,10065860331,0.00027951505,0.001030053,0.0001771329
10065870429,0.69438595,-0.2455317,-0.2862171,0.61288023,10065870429,0.22678651,0.39484617,-0.2965981,10065870429,0.9557851,-9.771889,0.8737308,10065870429,-0.00016336981,0.0018032771,0.0005742647
10065880439,0.6943868,-0.24553785,-0.28621656,0.6128771,10065880439,0.22904415,0.39798626,-0.29525214,10065880439,0.93238235,-9.788725,0.83310974,10065880439,0.0004591765,0.0016884618,-0.0006018309
10065890427,0.6943877,-0.24553221,-0.28621188,0.61288047,10065890427,0.22904187,0.39798602,-0.2940815,10065890427,0.9605626,-9.782499,0.8157703,10065890427,0.00080528203,0.0016048905,-0.0008849008
10065900333,0.694386,-0.24552901,-0.2862124,0.6128834,10065900333,0.22565256,0.3938005,-0.29080608,10065900333,0.9234735,-9.77271,0.7994869,10065900333,-0.00051353034,0.0008228738,-0.00076296926
10065910695,0.69438106,-0.245527,-0.28620726,0.61289215,10065910695,0.22789532,0.39588943,-0.28951323,10065910695,0.94499016,-9.796177,0.8356782,10065910695,-0.00036225095,0.0013579233,0.0009126859
10065920340,0.6943768,-0.24552214,-0.28620237,0.6129013,10065920340,0.22565486,0.3938007,-0.29197672,10065920340,0.9415103,-9.814296,0.8083378,10065920340,-2.0971522e-05,0.0005166363,5.4548495e-05
10065930552,0.6943799,-0.24552232,-0.28620026,0.61289865,10065930552,0.2289903,0.3948319,-0.29072902,10065930552,0.95631874,-9.764994,0.8205644,10065930552,0.00031218585,-0.00044331513,-7.9666264e-05
10065940334,0.69438076,-0.24551547,-0.2861974,0.61290175,10065940334,0.22902697,0.3969349,-0.29413468,10065940334,0.96225107,-9.77286,0.80573463,10065940334,0.0004263725,0.00044127647,-0.0009971056
10065950430,0.6943786,-0.24550556,-0.28619662,0.6129085,10065950430,0.22903958,0.39798585,-0.29291087,10065950430,0.95997506,-9.763233,0.80929065,10065950430,-0.0005405322,0.00011627469,0.00041572377
10065960437,0.69438106,-0.24550132,-0.28619155,0.6129098,10065960437,0.2279251,0.39799172,-0.28940693,10065960437,0.9494128,-9.758361,0.83674014,10065960437,0.00084809214,0.00025198888,-0.0011157943
10065970436,0.6943824,-0.24549103,-0.28619066,0.6129129,10065970436,0.22902697,0.3969349,-0.29413468,10065970436,0.97221255,-9.747511,0.81826603,10065970436,-0.0002775276,-0.00026082713,-0.00026252307
10065980439,0.6943795,-0.24548557,-0.28619254,0.6129175,10065980439,0.22795147,0.399044,-0.29520696,10065980439,0.93701124,-9.77824,0.841118,10065980439,-0.0011021979,-0.0002866434,-0.00044701248
10065990428,0.6943833,-0.2454892,-0.2861956,0.6129103,10065990428,0.22900751,0.39588326,-0.29184654,10065990428,0.9536157,-9.786149,0.84102774,10065990428,0.0008157864,-0.00036672968,-0.00015889108
10066000329,0.69438106,-0.24548279,-0.2861998,0.6129134,10066000329,0.22791937,0.39694148,-0.29414263,10066000329,0.9892592,-9.748562,0.82741475,10066000329,0.00021930877,3.678538e-05,-0.00025521684
10066010692,0.6943831,-0.24549244,-0.2862001,0.6129072,10066010692,0.23236471,0.39796636,-0.2940576,10066010692,0.93085116,-9.7448845,0.8361511,10066010692,-0.0010720976,-0.0001839688,0.0008810945
10066020337,0.6943842,-0.2454893,-0.28619552,0.6129093,10066020337,0.2290224,0.39693442,-0.29179338,10066020337,0.96163297,-9.7346115,0.81288195,10066020337,0.00024392176,0.00093223434,-0.00034922734
10066030427,0.6943913,-0.24548076,-0.28619006,0.61290723,10066030427,0.22902468,0.3969347,-0.29296404,10066030427,0.9531031,-9.759277,0.82099926,10066030427,-0.00038947165,0.00039464235,-0.00021007843
10066040443,0.6943892,-0.24548246,-0.28619406,0.612907,10066040443,0.22906712,0.4000879,-0.29163396,10066040443,0.94449186,-9.760111,0.8127418,10066040443,0.0010677446,-0.00042187702,-0.00059416145
10066050427,0.69438654,-0.24547817,-0.28619155,0.612913,10066050427,0.22682434,0.39799902,-0.2929268,10066050427,0.94172066,-9.78481,0.80942136,10066050427,-0.00076642446,0.0016462738,-0.00044841692
10066060428,0.6943903,-0.24547704,-0.28619117,0.6129094,10066060428,0.22569957,0.39695418,-0.2918173,10066060428,0.955068,-9.759685,0.85072225,10066060428,0.00061272085,0.00056630373,-0.0004986953
10066070429,0.6943958,-0.24547973,-0.28619078,0.61290216,10066070429,0.22900978,0.3958835,-0.29301718,10066070429,0.9444896,-9.762664,0.8432418,10066070429,0.001393809,0.00064374786,-0.00051759277
10066080334,0.694389,-0.24548475,-0.28618985,0.61290836,10066080334,0.22793654,0.39799285,-0.2952601,10066080334,0.96813524,-9.770106,0.8070262,10066080334,-0.0013149418,0.0010111807,0.0010530315
10066090915,0.69438386,-0.2454875,-0.28619432,0.61291087,10066090915,0.22906138,0.39903763,-0.2963696,10066090915,0.9509446,-9.762496,0.8163745,10066090915,-0.00056027435,0.00044616777,0.00024614297
10066100341,0.6943801,-0.24548675,-0.28619665,0.6129143,10066100341,0.22679229,0.39589643,-0.29186243,10066100341,0.9480109,-9.78629,0.8226532,10066100341,-9.882543e-05,0.0006046323,8.053612e-05
10066110696,0.69437593,-0.24549143,-0.28620002,0.6129157,10066110696,0.22897771,0.39378095,-0.29195282,10066110696,0.9600293,-9.7588,0.8277767,10066110696,-0.00039871037,-0.0007647099,-0.00011581648
10066120340,0.69437,-0.24549127,-0.28620154,0.6129217,10066120340,0.22679687,0.3958969,-0.2942037,10066120340,0.9247788,-9.757025,0.8180059,10066120340,0.0006200541,-0.0011191554,-0.00058966037
10066130461,0.69436544,-0.24549343,-0.2862025,0.6129256,10066130461,0.22459424,0.39696103,-0.29299587,10066130461,0.94288194,-9.771127,0.79026526,10066130461,-0.00015704148,-0.0013678931,-0.00031834934
10066140458,0.6943587,-0.24549581,-0.28620708,0.6129302,10066140458,0.22678772,0.39589602,-0.2895212,10066140458,0.94908524,-9.775697,0.82718337,10066140458,-0.00021636672,0.00012894254,0.00065808743
10066150434,0.69435626,-0.24549234,-0.28621247,0.6129317,10066150434,0.22679687,0.3958969,-0.2942037,10066150434,0.95605713,-9.761473,0.84111625,10066150434,-0.0012667198,-0.0017478494,-0.0002698386
10066160346,0.6943651,-0.24549136,-0.28620967,0.61292356,10066160346,0.22896506,0.39273003,-0.2931766,10066160346,0.944208,-9.777709,0.85392004,10066160346,-2.7757138e-05,-0.00092102494,-0.00053339265
10066170555,0.6943717,-0.24549599,-0.2862074,0.61291516,10066170555,0.22901435,0.39588395,-0.29535842,10066170555,0.95466447,-9.776516,0.86299974,10066170555,0.0016538855,-0.0010965951,0.00031098165
10066180351,0.69436467,-0.2455038,-0.28621385,0.61291695,10066180351,0.22790904,0.39589077,-0.296537,10066180351,0.9704289,-9.789669,0.813435,10066180351,-0.00025302637,-0.0011593765,0.00059621874
10066190545,0.69436693,-0.2455062,-0.28622058,0.6129104,10066190545,0.22903155,0.3969353,-0.29647592,10066190545,0.949014,-9.785513,0.86406595,10066190545,0.00052866526,0.00012711622,-0.0013872273
10066200342,0.6943685,-0.24550036,-0.2862178,0.6129122,10066200342,0.22682665,0.39799923,-0.2940974,10066200342,0.9581104,-9.762298,0.81996256,10066200342,0.0003136173,-0.0006975513,0.00029438268
10066210595,0.69436574,-0.24550992,-0.28621992,0.61291045,10066210595,0.23020911,0.4021841,-0.29386097,10066210595,0.92189705,-9.767369,0.8057903,10066210595,0.00090395566,-0.0008331258,0.00043850392
10066220458,0.69436675,-0.24550848,-0.2862152,0.6129121,10066220458,0.22681175,0.39694807,-0.29415056,10066220458,0.9602948,-9.750347,0.8429114,10066220458,9.226892e-05,-0.00063205976,0.0003475342
10066230441,0.6943736,-0.24550213,-0.28621608,0.6129066,10066230441,0.2268347,0.3990497,-0.29053238,10066230441,0.9499929,-9.749338,0.81109273,10066230441,0.0014079455,0.00034052506,-0.00016832445
10066240343,0.6943759,-0.24550448,-0.28620994,0.6129059,10066240343,0.22794689,0.3990436,-0.2928657,10066240343,0.9589775,-9.754203,0.87720263,10066240343,0.00062138494,-0.00025497936,0.0012538992
10066250539,0.6943836,-0.24550356,-0.28620452,0.61289996,10066250539,0.22902468,0.3969347,-0.29296404,10066250539,0.9534393,-9.771404,0.85869,10066250539,-1.49626285e-05,-0.0004985519,1.427345e-05
10066260336,0.694383,-0.24550763,-0.28620505,0.61289877,10066260336,0.22909118,0.40113994,-0.29626337,10066260336,0.95378196,-9.765823,0.8236408,10066260336,0.00017546769,-0.001236314,0.00037555583
10066270549,0.69438267,-0.24550512,-0.28620958,0.6128981,10066270549,0.22794689,0.3990436,-0.2928657,10066270549,0.9528325,-9.757123,0.8653784,10066270549,0.00019248948,0.0005526338,0.00010615401
10066280345,0.69438773,-0.24550763,-0.28620923,0.6128915,10066280345,0.2290568,0.3990372,-0.29402837,10066280345,0.9509133,-9.731438,0.81168216,10066280345,-0.0005491981,0.0006849952,-7.689744e-05
10066290424,0.6943826,-0.24550825,-0.28620836,0.6128974,10066290424,0.2290224,0.39693442,-0.29179338,10066290424,0.92842245,-9.766773,0.839635,10066290424,-0.0007716818,1.3995916e-05,5.8859587e-05
10066300446,0.69437987,-0.24550751,-0.28619975,0.6129049,10066300446,0.22572708,0.3990563,-0.29054034,10066300446,0.94836545,-9.766896,0.8158392,10066300446,-8.721091e-05,0.0005155122,-0.000694341
10066310560,0.6943764,-0.24550432,-0.28620002,0.61291,10066310560,0.22791706,0.39694127,-0.29297197,10066310560,0.938591,-9.781289,0.84078276,10066310560,0.0007231217,-0.00013055652,-0.00041887537
10066320492,0.69437945,-0.24550655,-0.28619492,0.61290807,10066320492,0.22680946,0.39694783,-0.29297993,10066320492,0.94790393,-9.761836,0.8246293,10066320492,0.0007082308,0.00040676538,0.00019620638
10066330454,0.69437927,-0.24550308,-0.286195,0.6129096,10066330454,0.22682434,0.39799902,-0.2929268,10066330454,0.9569975,-9.76457,0.8347059,10066330454,-0.0003644796,0.00044966023,-0.00029011257
10066340354,0.69437605,-0.24550158,-0.28619888,0.612912,10066340354,0.22793196,0.39799243,-0.2929188,10066340354,0.94098777,-9.792475,0.83504605,10066340354,-0.0004127398,-0.00043372158,-2.1786429e-05
10066350557,0.69437504,-0.24550402,-0.2861986,0.6129123,10066350557,0.22791249,0.3969408,-0.29063073,10066350557,0.93340236,-9.7669525,0.841443,10066350557,0.00054778997,0.0005269777,-0.0004177317
10066360341,0.6943754,-0.24549918,-0.28619456,0.61291575,10066360341,0.22790675,0.39589053,-0.29536638,10066360341,0.94015986,-9.78445,0.8263132,10066360341,-0.00058816,0.00011951476,-0.00028824527
10066370443,0.6943756,-0.2454993,-0.28618932,0.61291784,10066370443,0.22904645,0.39798647,-0.29642275,10066370443,0.9351591,-9.772033,0.800503,10066370443,0.0005164789,0.0005425317,0.00066445395
10066380448,0.6943675,-0.24550195,-0.28618944,0.61292595,10066380448,0.22790447,0.39589033,-0.29419577,10066380448,0.95265234,-9.803423,0.8282932,10066380448,-0.0013309252,0.0002960842,-0.000399312
10066390440,0.69436306,-0.24550442,-0.2861914,0.6129291,10066390440,0.22901209,0.39588374,-0.29418778,10066390440,0.9415901,-9.779219,0.8166596,10066390440,-0.0010313392,0.0003045285,-1.4019199e-05
10066400451,0.6943658,-0.24550053,-0.2861828,0.6129315,10066400451,0.22228502,0.39066678,-0.29098937,10066400451,0.9432948,-9.772039,0.85346425,10066400451,0.0001822915,0.00059406366,-0.00011329446
10066410586,0.69436574,-0.24549972,-0.2861821,0.6129323,10066410586,0.22673841,0.39274213,-0.28733933,10066410586,0.94952357,-9.779502,0.8306,10066410586,-0.00045921095,0.0012363186,0.00040576514
10066420302,0.6943681,-0.2454876,-0.28617987,0.6129355,10066420302,0.22563764,0.39274934,-0.29085922,10066420302,0.95558906,-9.763548,0.8617901,10066420302,-0.0002903631,0.0010039769,-0.0011614943
10066430570,0.69437075,-0.2454849,-0.28617263,0.61293703,10066430570,0.22452776,0.39275572,-0.28969654,10066430570,0.93743074,-9.787121,0.8323004,10066430570,-0.00090078916,2.6401132e-05,0.00079747755
10066440338,0.6943716,-0.24547704,-0.28616807,0.61294127,10066440338,0.22682434,0.39799902,-0.2929268,10066440338,0.94861317,-9.749638,0.829404,10066440338,0.00028913002,0.0018824013,-0.00044292584
10066450540,0.69436914,-0.24547541,-0.28617105,0.6129433,10066450540,0.23016211,0.3990304,-0.29284975,10066450540,0.9539004,-9.75511,0.8282933,10066450540,-0.00033766218,0.00050233025,-3.650505e-05
10066460331,0.6943691,-0.24547228,-0.28617918,0.6129409,10066460331,0.22794689,0.3990436,-0.2928657,10066460331,0.93410194,-9.761303,0.823038,10066460331,-0.00071041007,0.00037419144,-0.0012502326
10066470428,0.69437176,-0.24547184,-0.28617463,0.61294,10066470428,0.22568925,0.3959035,-0.2942117,10066470428,0.9666622,-9.748913,0.84401137,10066470428,0.0014517978,-0.0003181342,0.00035179406
10066480437,0.6943713,-0.24547684,-0.28618267,0.61293495,10066480437,0.22681403,0.39694828,-0.2953212,10066480437,0.98234737,-9.741664,0.8056873,10066480437,0.000341421,8.876156e-05,0.00093556475
10066490428,0.6943701,-0.2454704,-0.2861901,0.61293536,10066490428,0.22684385,0.3990506,-0.2952149,10066490428,0.9462503,-9.762608,0.83020705,10066490428,0.0005803304,-0.00080262776,7.862132e-05
10066500336,0.6943734,-0.24546462,-0.28618523,0.6129362,10066500336,0.22684385,0.3990506,-0.2952149,10066500336,0.9714753,-9.769278,0.8431239,10066500336,-0.0003208751,2.252683e-05,-0.00054108445
10066510659,0.6943726,-0.24546883,-0.28618467,0.61293566,10066510659,0.22903958,0.39798585,-0.29291087,10066510659,0.9382463,-9.743689,0.83438826,10066510659,-0.00083680265,0.0003272295,0.0011294466
10066520373,0.69437075,-0.24547118,-0.28618926,0.61293465,10066520373,0.2290843,0.40113932,-0.29275146,10066520373,0.9678983,-9.747794,0.8207822,10066520373,0.00014109351,3.8718805e-05,0.00028113462
10066530557,0.69437015,-0.24546933,-0.28619108,0.6129352,10066530557,0.23130183,0.40112635,-0.29390612,10066530557,0.96344376,-9.76926,0.84046316,10066530557,0.0006566411,5.0690025e-05,0.00029132608
10066540336,0.69437104,-0.245466,-0.2861901,0.61293596,10066540336,0.2312766,0.39902446,-0.2963537,10066540336,0.95891833,-9.77267,0.8105584,10066540336,0.0003024498,-0.00044808723,0.00033301022
10066550427,0.6943695,-0.24545784,-0.28619292,0.6129397,10066550427,0.22903958,0.39798585,-0.29291087,10066550427,0.9659885,-9.727808,0.8027317,10066550427,0.00034173857,-0.00089287385,-0.0004153857
10066560442,0.6943687,-0.24545918,-0.2861906,0.6129411,10066560442,0.22792163,0.3969417,-0.29531324,10066560442,0.9447598,-9.773464,0.8279921,10066560442,-0.000510077,0.000269169,0.00076942146
10066570432,0.69436556,-0.24546501,-0.28619888,0.6129386,10066570432,0.22787695,0.39378825,-0.29547265,10066570432,0.9501588,-9.778001,0.8200312,10066570432,-0.0001033023,-0.0005280087,-4.949514e-05
10066580435,0.6943623,-0.24547115,-0.2862025,0.6129381,10066580435,0.22680144,0.39589736,-0.29654497,10066580435,0.9463725,-9.795602,0.8274385,10066580435,0.0007638708,-0.0007494362,0.0005561933
10066590809,0.6943559,-0.24548224,-0.28621286,0.6129361,10066590809,0.22793426,0.39799264,-0.29408947,10066590809,0.94565403,-9.779629,0.8481002,10066590809,-0.0005857246,-0.0011514798,4.001148e-05
10066600330,0.6943492,-0.24548972,-0.28621617,0.612939,10066600330,0.22897312,0.39378053,-0.28961152,10066600330,0.95439136,-9.777828,0.85179687,10066600330,6.844476e-05,-0.00087215286,0.0012322003
10066610699,0.6943496,-0.24549532,-0.28620937,0.61293954,10066610699,0.22787009,0.39378753,-0.29196075,10066610699,0.9404038,-9.795335,0.82159674,10066610699,0.0013219994,-0.0008975519,0.00013933238
10066620294,0.6943436,-0.24550152,-0.28620827,0.6129444,10066620294,0.22678193,0.39484575,-0.29425684,10066620294,0.94063216,-9.78427,0.8238833,10066620294,-0.000121797435,-0.00025060773,0.000416263
10066630466,0.69434375,-0.24550617,-0.2862111,0.6129411,10066630466,0.22676475,0.39379436,-0.29313934,10066630466,0.9485129,-9.778783,0.85146755,10066630466,-0.00015554763,0.00068542454,-0.00037249178
10066640450,0.6943453,-0.24551345,-0.28621387,0.61293507,10066640450,0.22792968,0.39799216,-0.2917482,10066640450,0.9561003,-9.764749,0.83169204,10066640450,7.038284e-05,-0.0019993735,2.857484e-05
10066650425,0.69435,-0.2455183,-0.28621545,0.6129272,10066650425,0.22786552,0.39378712,-0.2896195,10066650425,0.9541042,-9.766205,0.8498916,10066650425,0.0012362674,-0.0013145758,0.0008587744
10066660454,0.69435066,-0.24552129,-0.28621352,0.612926,10066660454,0.2278999,0.39588985,-0.29185447,10066660454,0.94547313,-9.747054,0.84626746,10066660454,-3.8676895e-05,-0.001048333,0.00081815943
10066670435,0.694349,-0.24552691,-0.28621626,0.61292434,10066670435,0.22790447,0.39589033,-0.29419577,10066670435,0.9727138,-9.760244,0.83089155,10066670435,0.00019238517,3.6535785e-05,0.0010779034
10066680334,0.6943568,-0.2455238,-0.28620902,0.61292017,10066680334,0.22904645,0.39798647,-0.29642275,10066680334,0.96760786,-9.773474,0.8714808,10066680334,0.00026943628,0.00063694455,-0.00010184664
10066690535,0.6943595,-0.24552628,-0.2862139,0.61291397,10066690535,0.22348435,0.39696738,-0.29183322,10066690535,0.95624053,-9.778877,0.8347564,10066690535,0.00038455985,0.00057381764,0.0003522616
10066700335,0.69436353,-0.24551837,-0.2862112,0.6129137,10066700335,0.22461143,0.3980124,-0.29411334,10066700335,0.9578949,-9.738714,0.8516579,10066700335,0.00060108956,0.00036913343,-0.0002295468
10066710657,0.6943655,-0.24552214,-0.2862096,0.6129106,10066710657,0.22681403,0.39694828,-0.2953212,10066710657,0.9425492,-9.750486,0.8696362,10066710657,1.1658296e-05,-0.00028068665,0.0005105855
10066720371,0.6943665,-0.24552542,-0.28621137,0.61290747,10066720371,0.22788957,0.39483917,-0.29424888,10066720371,0.9411643,-9.773942,0.8486738,10066720371,0.00089727994,0.00107818,-0.0003268374
10066730411,0.6943611,-0.24552193,-0.28621918,0.61291134,10066730411,0.22794461,0.39904332,-0.29169506,10066730411,0.97476614,-9.74634,0.825724,10066730411,-0.0014210492,-0.00076356344,0.0006687194
10066740473,0.69436294,-0.24552013,-0.2862183,0.6129104,10066740473,0.2279251,0.39799172,-0.28940693,10066740473,0.96124864,-9.744942,0.8001823,10066740473,0.0007472448,0.00054233335,-0.0004886342
10066750425,0.6943629,-0.24551772,-0.28621367,0.61291355,10066750425,0.22790447,0.39589033,-0.29419577,10066750425,0.9390687,-9.768492,0.8203313,10066750425,0.0010442995,0.00015916489,0.00039141905
10066760332,0.69435835,-0.2455213,-0.2862214,0.6129136,10066760332,0.22794919,0.3990438,-0.2940363,10066760332,0.94949716,-9.743841,0.8447216,10066760332,-0.00097254757,-8.805562e-05,-0.000102672726
10066770543,0.6943609,-0.24552658,-0.2862208,0.6129089,10066770543,0.2301495,0.39797947,-0.29407352,10066770543,0.95842904,-9.755985,0.8456269,10066770543,0.0011154795,-1.3694167e-05,-0.00012025796
10066780321,0.6943605,-0.24551807,-0.28622007,0.61291313,10066780321,0.22902468,0.3969347,-0.29296404,10066780321,0.9373489,-9.766623,0.84283805,10066780321,-9.924732e-05,0.0012091668,-0.0009956658
10066790543,0.69435745,-0.24553221,-0.28623036,0.6129061,10066790543,0.22679913,0.39589712,-0.29537433,10066790543,0.9345329,-9.776522,0.8409226,10066790543,-0.0007005213,-0.0005883211,-0.0002644239
10066800340,0.694353,-0.24553478,-0.2862358,0.61290765,10066800340,0.23015176,0.39797968,-0.29524416,10066800340,0.9580826,-9.777178,0.8463909,10066800340,-0.000928442,-0.0006283438,-0.0007015811
10066810597,0.6943547,-0.24553107,-0.28623646,0.61290675,10066810597,0.22793654,0.39799285,-0.2952601,10066810597,0.95875823,-9.763721,0.8748654,10066810597,-0.0006013494,0.0006307475,5.7546422e-05
10066820422,0.694361,-0.24552949,-0.28623223,0.6129023,10066820422,0.23015754,0.3990299,-0.29050848,10066820422,0.95305395,-9.784488,0.87671506,10066820422,0.00018263608,-0.00011982024,0.0004543597
10066830473,0.6943618,-0.24553674,-0.28623462,0.61289746,10066830473,0.22793654,0.39799285,-0.2952601,10066830473,0.9420516,-9.798056,0.8612118,10066830473,0.00043026358,-0.00015708897,-0.0009790258
10066840322,0.6943631,-0.24553616,-0.28623575,0.6128956,10066840322,0.22902468,0.3969347,-0.29296404,10066840322,0.9204269,-9.768135,0.852048,10066840322,-7.976778e-06,0.00055260025,-0.00061470363
10066850592,0.6943568,-0.24554642,-0.2862374,0.6128979,10066850592,0.2290545,0.39903697,-0.29285774,10066850592,0.91255033,-9.791228,0.83305895,10066850592,-0.0003197249,-0.00017387979,0.0006183535
10066860347,0.6943585,-0.24554437,-0.28623387,0.61289835,10066860347,0.22570415,0.39695466,-0.29415855,10066860347,0.93110824,-9.757252,0.84522146,10066860347,5.8794394e-06,0.00056487136,-0.00056157075
10066870581,0.69436175,-0.24555396,-0.28623107,0.61289227,10066870581,0.22792163,0.3969417,-0.29531324,10066870581,0.946079,-9.764214,0.8339299,10066870581,0.0004193643,0.00014111493,0.00017290656
10066880344,0.6943595,-0.24555862,-0.28622976,0.61289346,10066880344,0.23124221,0.3969217,-0.2941187,10066880344,0.9364479,-9.785103,0.8275138,10066880344,0.0012152614,-0.0003734026,0.0005410332
10066890469,0.69435817,-0.24556105,-0.28622934,0.6128942,10066890469,0.2312571,0.39797288,-0.29406556,10066890469,0.9339543,-9.775282,0.8424227,10066890469,-0.00030907523,0.00024756603,0.00012525637
10066900462,0.6943611,-0.24555612,-0.2862217,0.6128964,10066900462,0.22677736,0.39484528,-0.29191557,10066900462,0.9493902,-9.775693,0.8468543,10066900462,0.00095837656,0.0005364353,-0.0002321545
10066910589,0.6943705,-0.24555393,-0.28622139,0.6128868,10066910589,0.22565256,0.3938005,-0.29080608,10066910589,0.9593238,-9.744457,0.84032786,10066910589,0.0011537978,0.00091867987,-0.00072984304
10066920489,0.6943696,-0.24555016,-0.28622675,0.61288685,10066920489,0.22565256,0.3938005,-0.29080608,10066920489,0.9729457,-9.752264,0.8050481,10066920489,-0.0003955774,0.0011594193,-0.00093151256
10066930451,0.69436824,-0.24554804,-0.28622928,0.6128881,10066930451,0.22674756,0.39274296,-0.29202187,10066930451,0.9363378,-9.756292,0.86581266,10066930451,8.994434e-05,-0.00036965776,-0.00041378755
10066940382,0.69436854,-0.24554332,-0.286232,0.61288834,10066940382,0.22792163,0.3969417,-0.29531324,10066940382,0.9724933,-9.769147,0.79950136,10066940382,-0.00044379476,0.0007938221,-0.00021211244
10066950584,0.6943666,-0.24554354,-0.2862339,0.6128895,10066950584,0.22788957,0.39483917,-0.29424888,10066950584,0.94737184,-9.756999,0.8091124,10066950584,2.054777e-05,-3.634207e-05,0.00096304715
10066960337,0.6943652,-0.24554814,-0.28623745,0.6128876,10066960337,0.22792163,0.3969417,-0.29531324,10066960337,0.96654755,-9.759356,0.81884813,10066960337,-0.00046433788,-1.8876046e-05,0.0012820661
10066970477,0.69436044,-0.24554609,-0.286243,0.6128913,10066970477,0.22682665,0.39799923,-0.2940974,10066970477,0.95881534,-9.741196,0.85433596,10066970477,0.00027049612,0.0006353371,-0.00025210064
10066980451,0.69435877,-0.24555014,-0.28624848,0.61288893,10066980451,0.22899488,0.39483237,-0.29307032,10066980451,0.9423003,-9.750494,0.822718,10066980451,-0.00020415429,-0.00013095234,-0.00039535947
10066990463,0.6943579,-0.24555065,-0.2862468,0.61289054,10066990463,0.22790904,0.39589077,-0.296537,10066990463,0.9505864,-9.736727,0.83512187,10066990463,0.0006700875,0.00029504672,0.0007185107
10067000447,0.69436073,-0.24554442,-0.28624547,0.61289054,10067000447,0.2279148,0.396941,-0.29180133,10067000447,0.9548827,-9.74832,0.856452,10067000447,-0.00092904456,3.6030076e-05,8.7624416e-05
10067010625,0.69435817,-0.24554084,-0.2862453,0.6128949,10067010625,0.22679229,0.39589643,-0.29186243,10067010625,0.92618096,-9.77744,0.79542005,10067010625,-0.00015172828,0.00044437312,-3.7309714e-05
10067020309,0.69436044,-0.24554189,-0.28624398,0.61289257,10067020309,0.22793196,0.39799243,-0.2929188,10067020309,0.95544773,-9.769027,0.835529,10067020309,0.00034113508,-7.0850365e-05,0.00038733054
10067030608,0.69435763,-0.2455448,-0.2862441,0.6128944,10067030608,0.22903273,0.39798516,-0.28939897,10067030608,0.9388372,-9.785921,0.84230644,10067030608,-6.614253e-05,-0.0009119641,0.00029585045
10067040309,0.6943557,-0.24554774,-0.28624937,0.61289304,10067040309,0.22793426,0.39799264,-0.29408947,10067040309,0.95353365,-9.767961,0.8355417,10067040309,-0.00036921352,-0.0014998112,-0.00063791126
10067050611,0.69435656,-0.24555345,-0.2862483,0.6128902,10067050611,0.2290843,0.40113932,-0.29275146,10067050611,0.951252,-9.790618,0.8558594,10067050611,0.00088165235,5.826261e-05,0.00067682005
10067060334,0.69435704,-0.24555574,-0.28624955,0.61288816,10067060334,0.22903958,0.39798585,-0.29291087,10067060334,0.9493475,-9.7869215,0.8566456,10067060334,-0.00020216592,-0.0005127443,-0.00022918824
10067070462,0.69435704,-0.24556205,-0.28624523,0.6128876,10067070462,0.22791706,0.39694127,-0.29297197,10067070462,0.9470018,-9.765943,0.821421,10067070462,0.0012566857,-0.00033800956,0.0011969898
10067080442,0.69435376,-0.24556978,-0.28624925,0.61288637,10067080442,0.22793654,0.39799285,-0.2952601,10067080442,0.94615376,-9.787126,0.8234926,10067080442,0.00033439323,-0.001385007,0.00016055722
10067090841,0.6943533,-0.24556917,-0.2862503,0.6128867,10067090841,0.22793426,0.39799264,-0.29408947,10067090841,0.93308175,-9.766654,0.8355864,10067090841,0.0008726474,-0.0007550819,0.00047621876
10067100331,0.6943479,-0.24557316,-0.28625184,0.6128904,10067100331,0.2278976,0.39588964,-0.29068387,10067100331,0.95307636,-9.805744,0.8193701,10067100331,7.638801e-05,-0.00047539454,-0.00025323965
10067110690,0.69435054,-0.2455729,-0.2862498,0.61288863,10067110690,0.22568467,0.39590305,-0.29187042,10067110690,0.9475866,-9.777363,0.82641715,10067110690,0.0008734586,-0.0013437243,-0.00057962164
10067120373,0.69435245,-0.24557772,-0.28625026,0.6128843,10067120373,0.22788726,0.39483896,-0.29307827,10067120373,0.95215595,-9.759915,0.8595074,10067120373,0.00046059117,-0.00084230397,-0.0009370968
10067130552,0.69435316,-0.24557595,-0.28625077,0.6128839,10067130552,0.22564222,0.39274982,-0.29320046,10067130552,0.9506599,-9.751387,0.8311934,10067130552,0.0004236577,-0.00082213245,-0.00053421874
10067140381,0.6943509,-0.24558009,-0.28625396,0.6128833,10067140381,0.22899717,0.39483258,-0.29424092,10067140381,0.9558072,-9.767618,0.83189106,10067140381,-0.00076019857,0.0010978645,0.0008825781
10067150421,0.69435084,-0.24558623,-0.2862625,0.612877,10067150421,0.22673266,0.3916918,-0.29207498,10067150421,0.9510509,-9.770134,0.84263086,10067150421,0.0006489763,-0.00045563,0.0002853647
10067160473,0.69435143,-0.24558248,-0.2862623,0.61287785,10067160473,0.22896506,0.39273003,-0.2931766,10067160473,0.9579586,-9.744429,0.8339663,10067160473,0.0008325912,0.00011425931,-0.00044220313
10067170467,0.69435436,-0.24558417,-0.286263,0.6128735,10067170467,0.22898455,0.39378163,-0.2954647,10067170467,0.9563032,-9.76926,0.85702306,10067170467,8.0653466e-05,-0.00083423033,0.00056327693
10067180439,0.69435006,-0.24559352,-0.28627497,0.6128691,10067180439,0.22791937,0.39694148,-0.29414263,10067180439,0.9730571,-9.768073,0.84415364,10067180439,-0.00032475498,-0.0018857466,0.00020572823
10067190459,0.6943464,-0.24560185,-0.28628325,0.61286604,10067190459,0.2290545,0.39903697,-0.29285774,10067190459,0.9503992,-9.740236,0.8294253,10067190459,0.00018795114,-0.0013603792,0.00026795827
10067200332,0.6943503,-0.24559811,-0.2862824,0.61286354,10067200332,0.22570184,0.39695442,-0.2929879,10067200332,0.9774563,-9.770445,0.8647413,10067200332,0.0004956294,8.965004e-05,-0.0006852187
10067210728,0.69435364,-0.24560243,-0.28628123,0.6128586,10067210728,0.2290568,0.3990372,-0.29402837,10067210728,0.950729,-9.756649,0.84809333,10067210728,0.0015318505,-0.00015263725,0.00048484653
10067220298,0.69436496,-0.24560027,-0.2862745,0.6128498,10067220298,0.22682434,0.39799902,-0.2929268,10067220298,0.94805896,-9.743087,0.84482974,10067220298,-6.2612817e-06,0.00044448394,-9.333901e-05
10067230494,0.69436496,-0.24560004,-0.28627938,0.61284757,10067230494,0.22680488,0.39694735,-0.2906387,10067230494,0.946895,-9.768317,0.8397813,10067230494,0.0003419947,-0.00039855018,-0.00013376027
10067240406,0.6943707,-0.2455966,-0.28627342,0.61284524,10067240406,0.22684155,0.39905038,-0.29404426,10067240406,0.9512576,-9.7649765,0.8568268,10067240406,0.00022981223,0.0006806394,-0.00030848756
10067250497,0.69437706,-0.24559292,-0.28627196,0.6128401,10067250497,0.22793196,0.39799243,-0.2929188,10067250497,0.94546175,-9.78831,0.8304775,10067250497,-0.0013427194,0.00089330785,5.0879084e-05
10067260434,0.6943713,-0.2455878,-0.28627747,0.6128462,10067260434,0.2301495,0.39797947,-0.29407352,10067260434,0.97465175,-9.758729,0.8430527,10067260434,-0.00045071729,-0.0007508239,-0.0007174993
10067270457,0.69437665,-0.24558382,-0.2862688,0.61284566,10067270457,0.22681175,0.39694807,-0.29415056,10067270457,0.92962486,-9.768682,0.8247517,10067270457,0.0011586295,0.0003740508,0.000755026
10067280334,0.69438267,-0.24557686,-0.28625944,0.612846,10067280334,0.22903958,0.39798585,-0.29291087,10067280334,0.9473349,-9.778893,0.87581956,10067280334,0.00022500474,0.0014350042,-0.001191536
10067290559,0.69438386,-0.24557498,-0.2862581,0.6128461,10067290559,0.22791937,0.39694148,-0.29414263,10067290559,0.9501303,-9.78741,0.8441445,10067290559,-0.0003198497,-0.0006047096,-0.00078529026
10067300472,0.6943805,-0.24557236,-0.28624928,0.61285514,10067300472,0.2290545,0.39903697,-0.29285774,10067300472,0.9326178,-9.769823,0.8041231,10067300472,-0.00037638098,0.0009044688,0.00051087607
10067310427,0.6943806,-0.24556644,-0.28625402,0.61285514,10067310427,0.22900978,0.3958835,-0.29301718,10067310427,0.96214896,-9.775339,0.8417551,10067310427,0.0007102238,-8.0223195e-05,-0.0004311828
10067320481,0.69438684,-0.24556346,-0.28624564,0.61285317,10067320481,0.2290545,0.39903697,-0.29285774,10067320481,0.9577748,-9.776451,0.8409181,10067320481,0.00044079404,0.0012586555,0.00036974903
10067330437,0.6943897,-0.24555548,-0.28623566,0.6128578,10067330437,0.22683123,0.39799964,-0.2964387,10067330437,0.93701804,-9.7609215,0.8209641,10067330437,0.0011090608,0.0010537663,0.00035670493
10067340488,0.6943921,-0.2455482,-0.28623012,0.6128606,10067340488,0.2268347,0.3990497,-0.29053238,10067340488,0.9558407,-9.772177,0.83157694,10067340488,0.0018373216,0.001015313,-0.00030953716
10067350428,0.6943927,-0.2455414,-0.2862261,0.6128645,10067350428,0.22680144,0.39589736,-0.29654497,10067350428,0.9605565,-9.764284,0.82874393,10067350428,0.0004798593,0.00020863488,-0.000281455
10067360369,0.6943926,-0.24554376,-0.286225,0.6128642,10067360369,0.22793426,0.39799264,-0.29408947,10067360369,0.9553389,-9.77582,0.81424034,10067360369,-0.0004326133,0.0012879139,0.0001229234
10067370570,0.69438845,-0.24554221,-0.2862219,0.61287093,10067370570,0.23010479,0.394826,-0.29423293,10067370570,0.95643955,-9.761891,0.8284969,10067370570,-0.0009798855,0.0024056947,0.00067593064
10067380337,0.69438905,-0.24553461,-0.28622463,0.612872,10067380337,0.22902697,0.3969349,-0.29413468,10067380337,0.96699786,-9.768303,0.8607754,10067380337,-0.00047261082,0.0011050338,-0.00019717682
10067390569,0.6943909,-0.24554038,-0.28622562,0.6128672,10067390569,0.23016669,0.39903083,-0.29519102,10067390569,0.93899775,-9.774979,0.8429947,10067390569,-0.00032643974,-0.0015924247,-3.6002137e-05
10067400447,0.69439375,-0.24553424,-0.2862256,0.61286634,10067400447,0.22456442,0.39485872,-0.29310215,10067400447,0.94501424,-9.772715,0.8479526,10067400447,0.00042992365,0.00069278013,0.0006004106
10067410500,0.69439584,-0.24554135,-0.2862241,0.6128619,10067410500,0.22565714,0.39380094,-0.29314736,10067410500,0.95819473,-9.756649,0.8533857,10067410500,0.0004949579,0.0006294511,-5.622115e-05
10067420416,0.6943982,-0.2455333,-0.28622147,0.6128636,10067420416,0.2289754,0.39378074,-0.29078215,10067420416,0.9425145,-9.768788,0.85744625,10067420416,-0.0011219634,0.0016060667,-0.00024661794
10067430497,0.6944058,-0.24553896,-0.28621918,0.6128538,10067430497,0.22343963,0.39381388,-0.2919926,10067430497,0.95765936,-9.748683,0.8442871,10067430497,0.00063855946,0.0007492956,-0.0006467188
10067440295,0.6944007,-0.24554363,-0.28622726,0.61285394,10067440295,0.22794919,0.3990438,-0.2940363,10067440295,0.96321297,-9.74821,0.81890917,10067440295,0.00076186843,0.00020696316,-0.00024610944
10067450598,0.69440484,-0.24553953,-0.2862296,0.6128499,10067450598,0.23014492,0.397979,-0.29173228,10067450598,0.9581195,-9.770524,0.8048828,10067450598,0.00012988131,-0.0004618857,-0.00037431624
10067460314,0.6943985,-0.2455359,-0.2862284,0.6128591,10067460314,0.22901209,0.39588374,-0.29418778,10067460314,0.95955294,-9.778971,0.8350054,10067460314,0.0007896805,4.8520975e-05,0.00020874105
10067470621,0.69439423,-0.24554205,-0.2862263,0.6128624,10067470621,0.22790217,0.39589012,-0.2930251,10067470621,0.94644314,-9.742996,0.8056103,10067470621,0.00045947358,-3.0508265e-05,0.0011544162
10067480342,0.69439507,-0.24553773,-0.28623006,0.6128614,10067480342,0.2301495,0.39797947,-0.29407352,10067480342,0.9495352,-9.776199,0.8378272,10067480342,0.00172792,0.0007746024,0.00021775067
10067490464,0.6943909,-0.24554269,-0.28623393,0.6128624,10067490464,0.22791706,0.39694127,-0.29297197,10067490464,0.9398933,-9.783598,0.7874599,10067490464,0.001817869,-0.00046842638,-0.0011588819
10067500600,0.6943839,-0.2455427,-0.2862383,0.6128682,10067500600,0.22793426,0.39799264,-0.29408947,10067500600,0.94335586,-9.760012,0.8131271,10067500600,-0.0006647371,-0.0006547021,-0.0001169974
10067510442,0.6943884,-0.2455447,-0.28623632,0.61286324,10067510442,0.23014718,0.39797926,-0.2929029,10067510442,0.95582217,-9.770542,0.8508289,10067510442,0.00043732952,-0.0015258435,0.0009861328
10067520487,0.6943926,-0.24554992,-0.28623223,0.61285836,10067520487,0.23125252,0.3979724,-0.2917243,10067520487,0.93778795,-9.765006,0.8479413,10067520487,0.00061244797,0.000483118,0.0006326884
10067530450,0.6943918,-0.2455463,-0.2862271,0.61286306,10067530450,0.22687139,0.4011527,-0.293938,10067530450,0.9559481,-9.775374,0.804523,10067530450,-0.00034924503,-0.0017323829,0.0002653133
10067540380,0.6943939,-0.24554539,-0.28622645,0.61286145,10067540380,0.22794461,0.39904332,-0.29169506,10067540380,0.94392014,-9.770332,0.8546454,10067540380,0.0012869043,0.00014613848,-0.00044672843
10067550544,0.6943932,-0.24554805,-0.28623456,0.61285734,10067550544,0.22795147,0.399044,-0.29520696,10067550544,0.9595661,-9.780209,0.80898225,10067550544,0.00039988384,-0.0010081017,-0.0002669571
10067560370,0.6943913,-0.24555705,-0.2862368,0.6128547,10067560370,0.22572131,0.39800602,-0.29527602,10067560370,0.9570304,-9.774815,0.83617246,10067560370,0.0009028362,-0.0009954767,0.0008378476
10067570430,0.6943895,-0.24556093,-0.2862419,0.6128528,10067570430,0.23121467,0.39481962,-0.29539564,10067570430,0.94978094,-9.773511,0.83462894,10067570430,0.00074966997,-0.0015551578,0.00017181598
10067580480,0.6943938,-0.24555938,-0.2862382,0.61285037,10067580480,0.23011512,0.39587668,-0.29183856,10067580480,0.93994534,-9.776952,0.86481905,10067580480,-0.00025977474,-0.0017756717,-0.00060399063
10067590853,0.6943904,-0.2455563,-0.2862329,0.6128579,10067590853,0.23125939,0.3979731,-0.2952362,10067590853,0.93879604,-9.780398,0.821029,10067590853,-0.0001531383,-0.00029720552,-5.151704e-05
10067600575,0.6943883,-0.24556345,-0.2862359,0.61285603,10067600575,0.22562048,0.39169797,-0.28974172,10067600575,0.9460948,-9.750967,0.8502629,10067600575,3.845524e-05,-0.00046089757,0.0003151456
10067610518,0.6943918,-0.24556755,-0.2862449,0.6128463,10067610518,0.22674982,0.39274323,-0.29319248,10067610518,0.95947814,-9.763622,0.83349353,10067610518,-0.00015750062,-0.0010940293,-0.0005351845
10067620310,0.6943845,-0.24557103,-0.28625566,0.612848,10067620310,0.22674525,0.39274275,-0.29085124,10067620310,0.96751523,-9.770691,0.8352864,10067620310,-0.0013219705,-0.0010644626,-0.00025663432
10067630611,0.69438535,-0.245578,-0.28626135,0.61284167,10067630611,0.22678772,0.39589602,-0.2895212,10067630611,0.953624,-9.759802,0.8504358,10067630611,0.00061629433,-0.002202673,0.00067970343
10067640311,0.6943849,-0.2455853,-0.28626433,0.61283785,10067640311,0.22455984,0.39485824,-0.29076087,10067640311,0.9401554,-9.7461815,0.8465736,10067640311,0.0009338558,-0.00025223475,-0.0004201103
10067650618,0.69438976,-0.24558757,-0.2862663,0.6128305,10067650618,0.22674756,0.39274296,-0.29202187,10067650618,0.9565608,-9.771171,0.84357274,10067650618,0.00051131286,-0.00010673795,-0.00035092328
10067660305,0.6943906,-0.24558392,-0.286269,0.61282974,10067660305,0.22787009,0.39378753,-0.29196075,10067660305,0.93094236,-9.755673,0.7615796,10067660305,-1.7620623e-06,-0.00041098334,0.00016278401
10067670515,0.69438654,-0.24558914,-0.2862724,0.61283064,10067670515,0.22901435,0.39588395,-0.29535842,10067670515,0.9545975,-9.76082,0.83674407,10067670515,0.00083040725,-0.00019058399,0.0008924948
10067680444,0.69439137,-0.24558917,-0.28627205,0.6128254,10067680444,0.23012199,0.39587736,-0.29535043,10067680444,0.95733535,-9.754742,0.851736,10067680444,0.00038658362,0.0010772459,-0.0005903458
10067690467,0.6943909,-0.24559349,-0.28627485,0.6128229,10067690467,0.22790447,0.39589033,-0.29419577,10067690467,0.9499541,-9.746719,0.835923,10067690467,0.00027422328,-0.00035778806,-6.7716464e-05
10067700490,0.6943902,-0.24560282,-0.28627202,0.61282134,10067700490,0.2290568,0.3990372,-0.29402837,10067700490,0.94833195,-9.751183,0.84480256,10067700490,0.00015330873,0.0006171735,0.0007792143
10067710556,0.69439,-0.24559778,-0.28627226,0.61282337,10067710556,0.22683927,0.39905018,-0.29287365,10067710556,0.9798236,-9.739961,0.8377406,10067710556,-0.0013514748,0.00083461497,-8.449517e-05
10067720383,0.69439644,-0.24558805,-0.28626713,0.6128224,10067720383,0.22684155,0.39905038,-0.29404426,10067720383,0.9448964,-9.776624,0.8530933,10067720383,-0.0006619878,0.0005248841,0.0005730763
10067730553,0.69440114,-0.24559319,-0.28626505,0.612816,10067730553,0.22793196,0.39799243,-0.2929188,10067730553,0.94357723,-9.764261,0.860399,10067730553,0.0014164736,-0.00038643088,-0.00021651573
10067740362,0.69440436,-0.24559328,-0.28625947,0.61281484,10067740362,0.22793426,0.39799264,-0.29408947,10067740362,0.93519783,-9.771759,0.8718747,10067740362,0.00040056836,0.0013515828,0.00015907642
10067750421,0.6944107,-0.2455923,-0.28625098,0.61281216,10067750421,0.22572938,0.3990565,-0.29171097,10067750421,0.9633432,-9.773845,0.8411032,10067750421,0.00047281105,0.00015225727,0.00027769618
10067760473,0.69441676,-0.2455869,-0.28624335,0.6128109,10067760473,0.22790675,0.39589053,-0.29536638,10067760473,0.93489325,-9.76998,0.85706913,10067760473,0.00019565877,-0.00012048893,-0.00013404526
10067770431,0.69441336,-0.24559021,-0.28624424,0.6128131,10067770431,0.23122959,0.39587077,-0.2953425,10067770431,0.94123167,-9.766108,0.851244,10067770431,-0.0013917619,0.0002331147,0.00070758536
10067780362,0.6944103,-0.24558935,-0.2862379,0.61281985,10067780362,0.22793426,0.39799264,-0.29408947,10067780362,0.9276352,-9.785876,0.8261318,10067780362,-0.0008533811,0.0010243375,0.00019417237
10067790556,0.6944114,-0.24559018,-0.2862406,0.61281705,10067790556,0.22792968,0.39799216,-0.2917482,10067790556,0.9613319,-9.78015,0.8447057,10067790556,-0.0007894151,0.0011444688,-0.00016714353
10067800440,0.6944158,-0.24558641,-0.28623366,0.61281663,10067800440,0.22791706,0.39694127,-0.29297197,10067800440,0.9559082,-9.769797,0.84541297,10067800440,0.00036030635,0.00097194966,-0.0006162124
10067810613,0.69441456,-0.24557662,-0.2862289,0.6128243,10067810613,0.23014718,0.39797926,-0.2929029,10067810613,0.94011533,-9.783266,0.7959231,10067810613,0.00031265523,0.00012775231,-9.881333e-07
10067820295,0.694414,-0.24557605,-0.28623235,0.6128235,10067820295,0.22794689,0.3990436,-0.2928657,10067820295,0.9654116,-9.770639,0.8159236,10067820295,-2.1071173e-05,0.00065692794,-0.00057364535
10067830490,0.69441664,-0.2455774,-0.28623083,0.6128207,10067830490,0.22791706,0.39694127,-0.29297197,10067830490,0.9607117,-9.776757,0.8408103,10067830490,0.0010683155,-0.00018926244,0.000126875
10067840420,0.694423,-0.24557844,-0.28622705,0.61281484,10067840420,0.2278976,0.39588964,-0.29068387,10067840420,0.95248634,-9.788491,0.8327507,10067840420,0.00065547973,0.00087593216,0.00086633116
10067850510,0.6944177,-0.24558558,-0.28623188,0.6128157,10067850510,0.23013002,0.39692783,-0.29178542,10067850510,0.96364796,-9.776343,0.84103507,10067850510,-0.0007707067,0.00018249266,0.00020733569
10067860404,0.6944241,-0.24557388,-0.28622887,0.61281455,10067860404,0.23122731,0.39587057,-0.29417184,10067860404,0.95011055,-9.76207,0.8375302,10067860404,0.000112882815,0.00011732988,-0.00072135683
10067870500,0.6944289,-0.24557719,-0.28622875,0.6128079,10067870500,0.22790675,0.39589053,-0.29536638,10067870500,0.96935016,-9.764328,0.8313885,10067870500,0.0010775067,0.00035182852,-0.0005946504
10067880299,0.69442534,-0.24557851,-0.28623596,0.6128079,10067880299,0.22899717,0.39483258,-0.29424092,10067880299,0.9543808,-9.744822,0.8180124,10067880299,0.00011772849,-0.00035859738,2.7687289e-05
10067890605,0.6944253,-0.24557282,-0.28623855,0.61280924,10067890605,0.22793426,0.39799264,-0.29408947,10067890605,0.96888775,-9.756313,0.8271555,10067890605,0.00020782184,0.0006137509,-0.00035941973
10067900484,0.69442683,-0.24556397,-0.28624338,0.6128087,10067900484,0.2300532,0.39167184,-0.29088047,10067900484,0.975195,-9.746222,0.8469406,10067900484,-0.00025138166,0.0008457089,-0.00070341025
10067910432,0.69443053,-0.24555509,-0.28624395,0.6128078,10067910432,0.22677279,0.39484483,-0.28957433,10067910432,0.9434656,-9.77088,0.8256771,10067910432,0.0004999032,0.0013366165,-0.0005517304
10067920696,0.69443,-0.24554963,-0.28624603,0.6128097,10067920696,0.22457933,0.39590988,-0.293049,10067920696,0.9580393,-9.753186,0.83209604,10067920696,-0.00095968135,0.00024320092,-0.0006230967
10067930444,0.6944315,-0.245543,-0.2862444,0.6128114,10067930444,0.22787009,0.39378753,-0.29196075,10067930444,0.955922,-9.761657,0.81985503,10067930444,0.00032710657,-0.00016044173,-0.00028310064
10067940481,0.694432,-0.24554005,-0.28624818,0.61281013,10067940481,0.22794689,0.3990436,-0.2928657,10067940481,0.964285,-9.764982,0.8424289,10067940481,0.00057043135,-0.0012114439,-0.0007782914
10067950420,0.69443125,-0.24553718,-0.28624856,0.61281204,10067950420,0.22903958,0.39798585,-0.29291087,10067950420,0.92871433,-9.7540455,0.8305538,10067950420,0.00057763513,2.2650696e-05,-0.00013745204
10067960361,0.6944346,-0.24553575,-0.28624853,0.6128088,10067960361,0.23012199,0.39587736,-0.29535043,10067960361,0.9412485,-9.758203,0.8427967,10067960361,0.0003262842,-0.00014635175,-0.0004421305
10067970534,0.6944339,-0.2455385,-0.28625628,0.6128048,10067970534,0.22684385,0.3990506,-0.2952149,10067970534,0.96595323,-9.750594,0.81308466,10067970534,-0.00033053383,-0.00089687575,-0.0001973547
10067980373,0.6944279,-0.24553686,-0.28626308,0.6128092,10067980373,0.226837,0.39904994,-0.29170302,10067980373,0.9602369,-9.7867565,0.8365754,10067980373,0.00073303096,0.0006667888,-5.8082864e-05
10067990562,0.6944256,-0.245534,-0.28626734,0.61281085,10067990562,0.22787695,0.39378825,-0.29547265,10067990562,0.9426774,-9.767732,0.80188423,10067990562,0.00061496254,-0.00010533724,-0.001153497
10068000441,0.6944235,-0.2455291,-0.2862634,0.6128171,10068000441,0.22573166,0.39905676,-0.29288164,10068000441,0.95822716,-9.788551,0.81062824,10068000441,-0.00013827533,0.00016969722,-0.00050723646
10068010497,0.6944211,-0.24553367,-0.28626588,0.61281675,10068010497,0.22793426,0.39799264,-0.29408947,10068010497,0.95804405,-9.78461,0.8633647,10068010497,-0.00027934648,0.00020451564,0.0012068963
10068020413,0.69442713,-0.24552941,-0.28625914,0.61281484,10068020413,0.23015176,0.39797968,-0.29524416,10068020413,0.9516387,-9.798768,0.85796046,10068020413,-0.0013507511,-2.728682e-05,0.00034517888
10068030496,0.6944326,-0.2455308,-0.2862524,0.61281127,10068030496,0.22791706,0.39694127,-0.29297197,10068030496,0.9222336,-9.773739,0.83620566,10068030496,0.0006066775,-0.00073854066,-0.00032391027
10068040299,0.69442683,-0.2455405,-0.28625005,0.61281496,10068040299,0.229035,0.39798537,-0.2905696,10068040299,0.9563204,-9.771776,0.8041778,10068040299,0.00017351564,-0.0011462588,4.004687e-08
10068050596,0.6944273,-0.24554488,-0.2862534,0.61281115,10068050596,0.22791706,0.39694127,-0.29297197,10068050596,0.9441587,-9.750939,0.8595717,10068050596,0.00064659957,-0.00030785985,0.0009194594
10068060298,0.69442517,-0.24554574,-0.28625757,0.6128112,10068060298,0.22900978,0.3958835,-0.29301718,10068060298,0.9452982,-9.802129,0.7926382,10068060298,0.00023539737,-0.0009336006,-0.0007904619
10068070608,0.69442666,-0.24554543,-0.28625712,0.61280996,10068070608,0.23013917,0.39692873,-0.29646796,10068070608,0.9443603,-9.78998,0.823489,10068070608,0.0005012462,-0.00069859903,-0.00022956543
10068080293,0.6944277,-0.24554399,-0.28626087,0.61280745,10068080293,0.23122959,0.39587077,-0.2953425,10068080293,0.9543963,-9.787163,0.79486036,10068080293,-0.00017990824,0.00024619326,-0.0007497659
10068090984,0.69442844,-0.2455423,-0.28625444,0.6128103,10068090984,0.2279148,0.396941,-0.29180133,10068090984,0.92824644,-9.770052,0.85369784,10068090984,0.00054129306,0.00016241614,0.00073044654
10068100484,0.6944291,-0.24554321,-0.28625336,0.6128098,10068100484,0.23010479,0.394826,-0.29423293,10068100484,0.94870794,-9.748623,0.84485215,10068100484,-0.000314245,-0.0004701987,0.00046169106
10068110434,0.69443166,-0.24554285,-0.28625295,0.61280715,10068110434,0.22569957,0.39695418,-0.2918173,10068110434,0.9445282,-9.730749,0.80856204,10068110434,-8.118339e-05,-0.000833231,-0.0007339362
10068120496,0.69442946,-0.24554588,-0.2862576,0.6128063,10068120496,0.22786321,0.3937869,-0.28844887,10068120496,0.9394203,-9.772233,0.8621925,10068120496,0.0004977323,-0.00022241473,-0.0006971806
10068130453,0.6944359,-0.24554375,-0.2862492,0.61280376,10068130453,0.22455984,0.39485824,-0.29076087,10068130453,0.94320196,-9.747736,0.8249377,10068130453,0.0008942522,0.00039071124,0.0007445812
10068140383,0.6944391,-0.24554256,-0.2862523,0.61279917,10068140383,0.2301495,0.39797947,-0.29407352,10068140383,0.9441943,-9.726678,0.81385577,10068140383,0.0011323681,-5.3801574e-05,-0.00047473237
10068150533,0.69443566,-0.24555708,-0.28625748,0.6127948,10068150533,0.22563536,0.39274913,-0.2896886,10068150533,0.94425064,-9.745344,0.8533659,10068150533,-6.818399e-05,-0.0008018315,-0.00068037864
10068160372,0.6944354,-0.24555512,-0.28626555,0.6127922,10068160372,0.2300555,0.39167204,-0.2920511,10068160372,0.95287836,-9.767839,0.83761865,10068160372,-0.00014514383,-0.0012486586,-0.0007066922
10068170437,0.6944343,-0.24555476,-0.286262,0.6127953,10068170437,0.23119293,0.39376777,-0.29193687,10068170437,0.94585323,-9.7678385,0.8532894,10068170437,-0.00050859246,0.00069507025,0.0006464226
10068180481,0.69443923,-0.24555543,-0.28625938,0.6127905,10068180481,0.22902468,0.3969347,-0.29296404,10068180481,0.9614525,-9.754266,0.8628526,10068180481,0.0011374904,0.001656373,-0.0004894277
10068190432,0.6944403,-0.24555062,-0.28625768,0.61279213,10068190432,0.22903958,0.39798585,-0.29291087,10068190432,0.93621796,-9.752369,0.8497138,10068190432,0.00012898538,-0.00027597323,-0.00053423643
10068200590,0.69444036,-0.2455504,-0.2862537,0.61279404,10068200590,0.22682434,0.39799902,-0.2929268,10068200590,0.93899935,-9.769036,0.8452628,10068200590,-0.0006297482,0.0007630298,-0.00019498263
10068210504,0.6944397,-0.24554846,-0.28625196,0.61279637,10068210504,0.22571217,0.39800513,-0.29059348,10068210504,0.9663706,-9.737609,0.85696423,10068210504,-0.0010091867,0.0001725601,-0.00021832157
10068220303,0.6944357,-0.2455452,-0.2862523,0.612802,10068220303,0.22678193,0.39484575,-0.29425684,10068220303,0.949829,-9.778313,0.83291644,10068220303,0.0002984181,0.00031339284,0.00010601338
10068230609,0.6944355,-0.24554548,-0.28625402,0.6128013,10068230609,0.22681403,0.39694828,-0.2953212,10068230609,0.96521497,-9.771595,0.81083053,10068230609,-0.00053394306,-1.157634e-05,-0.0004898086
10068240300,0.6944395,-0.24554265,-0.2862523,0.61279875,10068240300,0.2290545,0.39903697,-0.29285774,10068240300,0.9536104,-9.767372,0.8236892,10068240300,0.00091804005,0.0005513681,-0.00028583314
10068250501,0.6944383,-0.24553739,-0.28625166,0.61280245,10068250501,0.22791937,0.39694148,-0.29414263,10068250501,0.9421344,-9.7896805,0.8213688,10068250501,-0.0006565647,0.00054318644,-0.0011573676
10068260411,0.6944352,-0.24553911,-0.2862498,0.6128062,10068260411,0.22796866,0.40009537,-0.29632446,10068260411,0.9750384,-9.7729,0.82511353,10068260411,-0.00016246084,0.00027403887,0.0005915398
10068270504,0.6944385,-0.24554339,-0.28625455,0.61279845,10068270504,0.22793196,0.39799243,-0.2929188,10068270504,0.94695747,-9.789185,0.84882855,10068270504,-0.00016175583,0.00021118019,-0.0004347451
10068280417,0.694441,-0.24554315,-0.28624964,0.61279804,10068280417,0.2290568,0.3990372,-0.29402837,10068280417,0.9537333,-9.767418,0.8285294,10068280417,0.000706248,0.0011089155,0.00030968804
10068290610,0.694438,-0.24554206,-0.28624856,0.6128023,10068290610,0.22791706,0.39694127,-0.29297197,10068290610,0.9401019,-9.757608,0.8313327,10068290610,-0.00022981223,0.0007205596,0.00032557268
10068300331,0.6944408,-0.24553886,-0.28624326,0.6128031,10068300331,0.2290224,0.39693442,-0.29179338,10068300331,0.961681,-9.776303,0.8286199,10068300331,-0.00025828648,0.00041619595,0.00020272378
10068310581,0.6944443,-0.2455267,-0.28624743,0.6128019,10068310581,0.2290694,0.40008816,-0.2928046,10068310581,0.95759004,-9.768109,0.82496035,10068310581,0.001193759,-0.00084005296,-0.00058945175
10068320377,0.694442,-0.24553135,-0.28624958,0.6128018,10068320377,0.22790217,0.39589012,-0.2930251,10068320377,0.9554686,-9.775301,0.8450273,10068320377,-8.398667e-06,-0.0001418991,0.00029436685
10068330553,0.6944384,-0.24552608,-0.28625077,0.6128073,10068330553,0.22682665,0.39799923,-0.2940974,10068330553,0.95444095,-9.772067,0.82433355,10068330553,0.00034934003,0.0004585497,-0.00043933187
10068340379,0.6944335,-0.24552925,-0.28625745,0.6128085,10068340379,0.23011741,0.3958769,-0.2930092,10068340379,0.9439989,-9.76797,0.8135644,10068340379,0.0006663678,-7.803738e-05,-0.00014106743
10068350442,0.6944353,-0.24552321,-0.28625372,0.6128106,10068350442,0.22907397,0.40008858,-0.29514587,10068350442,0.96485734,-9.770183,0.82759964,10068350442,0.00021642167,-0.00028237142,-2.1426938e-05
10068360485,0.6944326,-0.24552405,-0.28626263,0.6128091,10068360485,0.23010248,0.3948258,-0.2930623,10068360485,0.953148,-9.769913,0.82755244,10068360485,-0.0004363032,-0.00024934765,0.00010989979
10068370430,0.6944328,-0.24551794,-0.28626293,0.61281127,10068370430,0.22683349,0.39799988,-0.2976093,10068370430,0.9544467,-9.746686,0.8505816,10068370430,-0.00040210132,-8.548703e-05,0.00094480626
10068380366,0.69443864,-0.24551202,-0.28625935,0.61280864,10068380366,0.22790675,0.39589053,-0.29536638,10068380366,0.95732677,-9.762026,0.846625,10068380366,-0.00079725217,0.00030257832,-0.00062163174
10068390685,0.6944363,-0.24551569,-0.28625828,0.6128104,10068390685,0.22795147,0.399044,-0.29520696,10068390685,0.9620136,-9.75769,0.79865074,10068390685,0.0008851327,0.0005009072,0.0010551196
10068400342,0.69443506,-0.24551341,-0.28626364,0.6128101,10068400342,0.22565714,0.39380094,-0.29314736,10068400342,0.9606701,-9.7503,0.84307945,10068400342,-0.00035483856,-4.4393353e-05,5.2572228e-05
10068410618,0.6944365,-0.24551144,-0.28625742,0.6128122,10068410618,0.22785287,0.39273617,-0.29084328,10068410618,0.9580957,-9.755295,0.78180647,10068410618,0.00037872512,0.00025480893,0.00017605536
10068420520,0.69443345,-0.24550028,-0.286258,0.61281985,10068420520,0.22564799,0.39380005,-0.2884648,10068420520,0.9549756,-9.755421,0.8119006,10068420520,-0.00082160626,0.00037842616,-0.00072610937
10068430496,0.69443166,-0.2454996,-0.28625807,0.6128222,10068430496,0.22565486,0.3938007,-0.29197672,10068430496,0.9543388,-9.739183,0.7874545,10068430496,0.0016755173,-0.0005866047,0.00081998855
10068440421,0.6944289,-0.24549805,-0.2862577,0.612826,10068440421,0.22679229,0.39589643,-0.29186243,10068440421,0.9417873,-9.774387,0.8351616,10068440421,0.0010853847,-0.00093655195,0.00050242245
10068450494,0.69442743,-0.24549675,-0.2862598,0.6128273,10068450494,0.22682665,0.39799923,-0.2940974,10068450494,0.9682267,-9.760829,0.80474436,10068450494,0.0011323811,-0.00015724171,-0.00022078026
10068460407,0.69442225,-0.24550231,-0.2862678,0.6128271,10068460407,0.22792394,0.3969419,-0.29648387,10068460407,0.9411679,-9.773558,0.84814435,10068460407,-0.0009032786,-0.000652411,-0.00033856463
10068470496,0.6944185,-0.24550371,-0.28627458,0.6128278,10068470496,0.23013459,0.3969283,-0.2941267,10068470496,0.9622475,-9.786518,0.79090285,10068470496,-0.0012534633,-0.00089294836,-0.0010638628
10068480295,0.69441843,-0.24550782,-0.28627476,0.61282605,10068480295,0.22901435,0.39588395,-0.29535842,10068480295,0.9503104,-9.796629,0.8509452,10068480295,-0.00058714487,-2.2714026e-05,8.044392e-05
10068490708,0.69441795,-0.245513,-0.28627938,0.6128224,10068490708,0.2290568,0.3990372,-0.29402837,10068490708,0.9561926,-9.787368,0.8192717,10068490708,-7.5343996e-06,-0.0006982647,-0.0013897568
10068500320,0.6944201,-0.2455198,-0.28627732,0.6128182,10068500320,0.22682892,0.39799944,-0.29526803,10068500320,0.936892,-9.783955,0.87016463,10068500320,0.0006969981,-0.00038311537,0.00022423826
10068510467,0.6944243,-0.24551891,-0.28627262,0.6128159,10068510467,0.22566518,0.39485145,-0.28958228,10068510467,0.93825066,-9.798238,0.8568423,10068510467,0.0005385438,-0.00046135206,-4.272256e-05
10068520479,0.6944212,-0.24551761,-0.28627545,0.6128187,10068520479,0.22907738,0.3990392,-0.30456403,10068520479,0.93772894,-9.78748,0.8152357,10068520479,-0.00028369203,-9.060837e-05,-0.00023765396
10068530439,0.6944207,-0.2455221,-0.2862745,0.61281794,10068530439,0.22910377,0.4021909,-0.29503956,10068530439,0.9495001,-9.75766,0.8534863,10068530439,0.0010498445,0.00017122179,-0.00031403732
10068540476,0.6944214,-0.24552363,-0.28627887,0.61281437,10068540476,0.22905223,0.39903674,-0.2916871,10068540476,0.9669585,-9.777999,0.8597326,10068540476,-0.00037167408,-0.0008152444,0.00016332418
10068550417,0.6944226,-0.2455213,-0.28628,0.6128135,10068550417,0.23013002,0.39692783,-0.29178542,10068550417,0.9500575,-9.771,0.8184867,10068550417,-0.00032317452,-7.497333e-05,-0.00058567896
10068560368,0.69441956,-0.24552737,-0.2862855,0.6128119,10068560368,0.23012426,0.39587757,-0.2965211,10068560368,0.95591676,-9.774332,0.8251429,10068560368,0.00075254776,-0.00094857346,0.0004374953
10068570533,0.6944182,-0.24552932,-0.28629056,0.6128104,10068570533,0.23121697,0.39481983,-0.29656625,10068570533,0.94980234,-9.773364,0.84821737,10068570533,-0.00037657376,-0.00017969124,-0.00062498264
10068580364,0.6944208,-0.24553306,-0.28628686,0.6128076,10068580364,0.22790217,0.39589012,-0.2930251,10068580364,0.93308437,-9.771126,0.8172665,10068580364,0.00058474485,0.00092069246,0.00014371146
10068591059,0.6944211,-0.24553409,-0.2862863,0.61280715,10068591059,0.23014492,0.397979,-0.29173228,10068591059,0.9729862,-9.724634,0.8500963,10068591059,0.00020748004,-0.00022394862,0.000266904
10068600336,0.69442576,-0.24553177,-0.28628534,0.6128032,10068600336,0.22454494,0.39380708,-0.290814,10068600336,0.94073933,-9.748032,0.82447046,10068600336,-0.00094480254,1.4675781e-05,-5.8874488e-05
10068610478,0.6944234,-0.24553296,-0.28628722,0.6128045,10068610478,0.22790217,0.39589012,-0.2930251,10068610478,0.92804605,-9.759813,0.8416152,10068610478,7.990748e-06,0.00032858178,0.0004706178
10068620451,0.69442165,-0.24554022,-0.28629008,0.6128023,10068620451,0.22343506,0.39381346,-0.28965136,10068620451,0.9525106,-9.76022,0.8552376,10068620451,-0.00065010693,-0.00085161626,-0.0007034512
10068630494,0.6944247,-0.24553625,-0.2862891,0.6128009,10068630494,0.22677965,0.39484555,-0.2930862,10068630494,0.94388276,-9.773494,0.83456504,10068630494,-0.0006937571,-7.516146e-05,-0.00078295544
10068640303,0.694426,-0.24553601,-0.28628728,0.61280036,10068640303,0.22568467,0.39590305,-0.29187042,10068640303,0.97819597,-9.772762,0.85312,10068640303,0.00022790581,0.0014689509,0.0010022679
10068650601,0.6944288,-0.24553543,-0.28629047,0.61279595,10068650601,0.22456214,0.39485845,-0.2919315,10068650601,0.9644535,-9.739061,0.80551094,10068650601,0.00011305697,5.354453e-05,-0.000348581
10068660293,0.69443256,-0.24552225,-0.28628275,0.61280054,10068660293,0.22562274,0.39169818,-0.29091236,10068660293,0.9538402,-9.745823,0.86915517,10068660293,-0.00017917063,0.0013876734,-0.00062038936
10068670611,0.6944375,-0.24552812,-0.28628117,0.6127933,10068670611,0.2301323,0.3969281,-0.29295605,10068670611,0.9221564,-9.74835,0.8655951,10068670611,0.00097636133,1.7661601e-05,-0.00015070941
10068680292,0.6944428,-0.24552527,-0.2862702,0.6127935,10068680292,0.22681403,0.39694828,-0.2953212,10068680292,0.93429726,-9.760513,0.8639763,10068680292,0.00020486489,0.00056477264,0.00017165486
10068690600,0.6944465,-0.24552444,-0.286274,0.6127879,10068690600,0.227885,0.3948387,-0.2919076,10068690600,0.9485426,-9.809025,0.8052783,10068690600,0.0014475165,0.00010470115,-0.0003699055
10068700434,0.69444734,-0.24552326,-0.28627357,0.6127876,10068700434,0.22796409,0.40009496,-0.29398316,10068700434,0.9399058,-9.76713,0.8338949,10068700434,0.00038003363,-0.00017218757,0.00022572931
10068710472,0.69445175,-0.24552174,-0.2862725,0.6127838,10068710472,0.2301965,0.40113315,-0.2950847,10068710472,0.9504756,-9.783316,0.8271524,10068710472,0.00036029425,0.0008051805,-0.0009917021
10068720338,0.69444907,-0.2455145,-0.28627384,0.61278915,10068720338,0.22792163,0.3969417,-0.29531324,10068720338,0.96317434,-9.801382,0.8805829,10068720338,-0.00031506363,0.0009917123,-0.0011486178
10068730585,0.6944555,-0.24551585,-0.2862758,0.61278033,10068730585,0.22568695,0.3959033,-0.29304105,10068730585,0.95869154,-9.788544,0.83847463,10068730585,0.0002473686,-0.00017066672,-4.018098e-05
10068740370,0.69445705,-0.2455119,-0.28627148,0.6127822,10068740370,0.22907746,0.4011386,-0.2892396,10068740370,0.946694,-9.766642,0.8513917,10068740370,-0.0006567342,0.00037236046,-0.0010114862
10068750525,0.69445455,-0.24551672,-0.28628024,0.612779,10068750525,0.22791937,0.39694148,-0.29414263,10068750525,0.93908197,-9.789011,0.858941,10068750525,-0.0009182673,0.0003582677,-0.0001276005
10068760362,0.6944533,-0.24551761,-0.28628016,0.6127801,10068760362,0.22901209,0.39588374,-0.29418778,10068760362,0.9558583,-9.791393,0.8522216,10068760362,0.0008121822,0.00043410063,-0.00023318268
10068770419,0.6944572,-0.24551855,-0.2862773,0.6127767,10068770419,0.22790217,0.39589012,-0.2930251,10068770419,0.9358069,-9.774251,0.8912339,10068770419,-0.00041774195,0.00082879234,0.00017593056
10068780476,0.69445944,-0.24551505,-0.2862716,0.6127782,10068780476,0.2301495,0.39797947,-0.29407352,10068780476,0.9227541,-9.732219,0.8185021,10068780476,-0.00019522943,0.00064755324,-0.001108055
10068790572,0.6944636,-0.24550933,-0.28626165,0.6127804,10068790572,0.22901209,0.39588374,-0.29418778,10068790572,0.9457079,-9.780811,0.83761203,10068790572,0.00033873692,0.0025268886,-0.00064453855
10068800445,0.6944667,-0.24550405,-0.28625458,0.6127823,10068800445,0.22681175,0.39694807,-0.29415056,10068800445,0.9524517,-9.75701,0.8419224,10068800445,0.00023191329,0.00032909587,-9.5017254e-05
10068810467,0.6944687,-0.24549302,-0.2862437,0.6127896,10068810467,0.22790217,0.39589012,-0.2930251,10068810467,0.94482785,-9.763375,0.83760715,10068810467,-0.00022270903,0.0017749378,0.00069813244
10068820344,0.69446677,-0.2454905,-0.2862419,0.6127936,10068820344,0.22900751,0.39588326,-0.29184654,10068820344,0.96567124,-9.770045,0.8227397,10068820344,-0.00011502858,0.00096096564,8.123461e-05
10068830601,0.6944656,-0.24548894,-0.28623846,0.6127972,10068830601,0.22794919,0.3990438,-0.2940363,10068830601,0.9459022,-9.762859,0.7978608,10068830601,0.0007541608,0.0018528104,0.00054210797
10068840313,0.6944659,-0.24548903,-0.28624108,0.6127955,10068840313,0.22569153,0.3959037,-0.2953823,10068840313,0.9703163,-9.749573,0.85424733,10068840313,0.0007458329,-0.00033612084,-7.7765435e-07
10068850509,0.6944649,-0.2454953,-0.28624636,0.6127917,10068850509,0.2290568,0.3990372,-0.29402837,10068850509,0.94608235,-9.744625,0.82866395,10068850509,-0.0006289575,-0.0003005499,0.00039831642
10068860415,0.69446427,-0.24549367,-0.286246,0.6127932,10068860415,0.23016211,0.3990304,-0.29284975,10068860415,0.96675456,-9.743692,0.8159474,10068860415,0.00022413302,-0.0014807768,-0.00021245144
10068870501,0.6944604,-0.24548711,-0.286247,0.61279976,10068870501,0.23016669,0.39903083,-0.29519102,10068870501,0.9538475,-9.751819,0.82039005,10068870501,-0.0006221952,-0.00050839595,0.0002890015
10068880408,0.6944629,-0.24548739,-0.2862473,0.6127966,10068880408,0.22902697,0.3969349,-0.29413468,10068880408,0.94595635,-9.748094,0.824445,10068880408,0.00084445067,-0.00030493736,0.00046372693
